timestamp_sec,timestamp_nanosec,orientation_x,orientation_y,orientation_z,orientation_w,angular_velocity_x,angular_velocity_y,angular_velocity_z,linear_acceleration_x,linear_acceleration_y,linear_acceleration_z
27,476000000,7.620123551245355e-06,7.88298380750165e-07,6.817124032546528e-08,0.9999999999706539,0.018326686595713217,0.001979060950134898,2.3220051354554253e-10,-1.547190515013775e-05,0.00014709658140455424,9.792009274766782
27,486000000,-6.37409752305291e-06,6.593958381964911e-07,6.821625470078398e-08,0.9999999999794658,-0.01777517251621381,0.0018704199209774563,-1.174327563408459e-10,-1.2900839847163152e-05,-0.0001228981172385648,9.807990723337998
27,496000000,7.6201235511984705e-06,7.882983811253176e-07,6.822048485059843e-08,0.9999999999706539,0.01832668659570976,0.0019790609501584683,2.3220051364753838e-10,-1.5471905150121598e-05,0.00014709658140438656,9.792009274767292
27,506000000,-6.374097523113328e-06,6.593958378923555e-07,6.826549922591727e-08,0.9999999999794658,-0.01777517251622477,0.0018704199210025118,-1.1743275670060995e-10,-1.290083984735459e-05,-0.00012289811723910588,9.807990723337788
27,516000000,2.5134887787744468e-06,-2.7581358208936314e-07,6.829520534223988e-08,0.9999999999968008,-0.010213270566738073,-0.002128223008035503,5.8782861623311306e-08,4.819460657766737e-06,5.242953379489422e-05,10.305031750850986
27,526000000,-6.374097523136838e-06,6.5939583758021e-07,6.831474375105165e-08,0.9999999999794658,-0.010213270566787032,-0.0021282230085455473,1.8502245011264641e-09,-1.2924166951105603e-05,-0.00012493231056803,9.799999999191442
27,536000000,7.620123551172936e-06,7.882983818782445e-07,6.83189739008643e-08,0.9999999999706539,0.018326686595737048,0.001979060950137368,2.322005134656653e-10,-1.3808662560297195e-05,0.00013897866012593267,9.28770395331663
27,546000000,-6.3740975231710025e-06,6.593958372653848e-07,6.836398827618514e-08,0.9999999999794658,-0.017775172516225974,0.0018704199210026382,-1.174327567477859e-10,-1.2900839847361481e-05,-0.00012289811723898472,9.807990723337786
27,556000000,7.62012355107659e-06,7.882983822444026e-07,6.836821842599715e-08,0.9999999999706539,0.018326686595718344,0.0019790609501354247,2.3220051335981373e-10,-1.5471905150005337e-05,0.00014709658140427993,9.792009274767416
27,566000000,-6.374097523150233e-06,6.593958369445275e-07,6.841323280131674e-08,0.9999999999794658,-0.01777517251620072,0.0018704199210000313,-1.1743275669258997e-10,-1.2900839847225666e-05,-0.00012289811723789645,9.807990723337882
27,576000000,7.620123551062273e-06,7.882983826219168e-07,6.84174629511289e-08,0.9999999999706539,0.018326686595714584,0.0019790609501111173,2.3220051327605627e-10,-1.5471905150060124e-05,0.00014709658140474828,9.792009274766789
27,586000000,-6.374097523262655e-06,6.593958366310315e-07,6.846247732644859e-08,0.9999999999794658,-0.017775172516239755,0.0018704199209801345,-1.1743275628548308e-10,-1.2900839847234126e-05,-0.00012289811723950272,9.807990723337255
27,596000000,7.620123551017746e-06,7.88298382999591e-07,6.84667074762594e-08,0.9999999999706539,0.018326686595711083,0.0019790609501107517,2.3220051338868138e-10,-1.547190515009758e-05,0.0001470965814046738,9.79200927476703
27,606000000,-6.374097523243353e-06,6.593958363079042e-07,6.851172185157936e-08,0.9999999999794658,-0.01777517251622388,0.0018704199209545651,-1.1743275602502887e-10,-1.2900839847060032e-05,-0.00012289811723848918,9.807990723338515
27,616000000,7.620123551016427e-06,7.882983833815145e-07,6.851595200138982e-08,0.9999999999706539,0.018326686595744976,0.0019790609501381807,2.3220051356440887e-10,-1.5471905150214202e-05,0.00014709658140538484,9.792009274766922
27,626000000,-6.3740975232479555e-06,6.593958360001195e-07,6.856096637671079e-08,0.9999999999794658,-0.017775172516178512,0.0018704199209977268,-1.1743275658233866e-10,-1.290083984717288e-05,-0.0001228981172379516,9.807990723338598
27,636000000,7.6201235508967845e-06,7.882983837441209e-07,6.856519652652141e-08,0.9999999999706539,0.018326686595693278,0.0019790609501089034,2.3220051334508134e-10,-1.5471905149985964e-05,0.00014709658140378348,9.792009274766777
27,646000000,-6.374097523312838e-06,6.593958356858851e-07,6.861021090184139e-08,0.9999999999794658,-0.01777517251618817,0.0018704199209987288,-1.1743275644348652e-10,-1.2900839847160973e-05,-0.00012289811723855583,9.80799072333801
27,656000000,7.620123550901164e-06,7.882983841209711e-07,6.861444105165096e-08,0.9999999999706539,0.018326686595714455,0.0019790609501350253,2.3220051331111358e-10,-1.5471905150010528e-05,0.00014709658140464246,9.792009274766224
27,666000000,-6.374097523366819e-06,6.593958353868224e-07,6.865945542697036e-08,0.9999999999794658,-0.017775172516225093,0.0018704199210025482,-1.174327568872375e-10,-1.290083984745798e-05,-0.00012289811723900185,9.807990723338163
27,676000000,7.620123550895998e-06,7.882983845031792e-07,6.86636855767775e-08,0.9999999999706539,0.009661755823504089,-0.0017212593675748793,1.4332514616382794e-08,-1.7199804956644708e-05,0.00015426150337330055,10.344980681830204
27,686000000,-6.374097523428703e-06,6.59395835060446e-07,6.870869995209921e-08,0.9999999999794658,-0.017775172516275785,0.0018704199209599358,-1.1743275609050712e-10,-1.1607983121367927e-05,-0.00011646733634376987,9.354106713181517
27,696000000,7.620123550837583e-06,7.882983848769521e-07,6.871293010190559e-08,0.9999999999706539,0.018326686595717814,0.0019790609501353735,2.3220051346329896e-10,-1.547190515010529e-05,0.00014709658140494534,9.792009274767388
27,706000000,-6.3740975234585295e-06,6.593958347466642e-07,6.875794447722614e-08,0.9999999999794658,-0.01777517251624352,0.0018704199209805309,-1.1743275621950604e-10,-1.2900839847221848e-05,-0.00012289811723953926,9.807990723338323
27,716000000,7.620123550745158e-06,7.882983852476499e-07,6.876217462703229e-08,0.9999999999706539,0.018326686595700033,0.0019790609501335295,2.3220051350830863e-10,-1.5471905150020374e-05,0.00014709658140386794,9.792009274766865
27,726000000,-6.374097523428036e-06,6.593958344284579e-07,6.880718900235271e-08,0.9999999999794658,-0.010213270566785304,-0.0021282230085457633,1.8502245004104098e-09,-1.4769605139331802e-05,-0.000129775495331933,10.426139610514186
27,736000000,7.620123550683184e-06,7.882983856174634e-07,6.881141915215865e-08,0.9999999999706539,0.018326686595681256,0.001979060950131589,2.322005134042835e-10,-1.3808662560035362e-05,0.0001389786601240248,9.287703953315457
27,746000000,-6.374097523509822e-06,6.593958341260226e-07,6.885643352747813e-08,0.9999999999794658,-0.010213270566693666,-0.0021282230084994505,1.8502244994371611e-09,-1.4769605139540305e-05,-0.00012977549533293984,10.426139610509253
27,756000000,7.620123550744224e-06,7.882983859970943e-07,6.886066367728394e-08,0.9999999999706539,0.018326686595734765,0.0019790609501131977,2.3220051310128363e-10,-1.3808662560152617e-05,0.00013897866012600385,9.287703953318877
27,766000000,-6.3740975235403826e-06,6.59395833806761e-07,6.890567805260616e-08,0.9999999999794658,-0.017775172516228083,0.001870419920978932,-1.1743275632555752e-10,-1.2900839847249053e-05,-0.0001228981172392437,9.80799072333772
27,777000000,2.513488778947129e-06,-2.7581358048507184e-07,6.893538416893549e-08,0.9999999999968008,-0.010213270566756399,-0.002128223008033491,5.878286162203389e-08,4.819460657863988e-06,5.2429533794795335e-05,10.305031750851702
27,787000000,-1.5432196528567946e-06,-2.0123280906538412e-07,6.893902191227159e-08,0.9999999999987867,0.00966175582346909,-0.001721259367372801,-3.633367165142342e-08,4.06860842525935e-06,-3.379403703360697e-05,9.734947688553039
27,797000000,2.5134887789162926e-06,-2.758135803467536e-07,6.89846286940624e-08,0.9999999999968008,-0.010213270566726423,-0.0021282230080059564,5.878286162105666e-08,5.29120546013511e-06,5.333910777883786e-05,9.865052311239936
27,807000000,-1.54321965284672e-06,-2.0123280914578078e-07,6.898826643739756e-08,0.9999999999987867,0.009661755823485338,-0.0017212593674008608,-3.633367165202677e-08,4.06860842532804e-06,-3.3794037033593405e-05,9.734947688556442
27,817000000,2.513488778977694e-06,-2.758135802187559e-07,6.903387321918854e-08,0.9999999999968008,-0.010213270566737613,-0.002128223008004702,5.878286162106582e-08,5.2912054600585556e-06,5.333910777981289e-05,9.865052311242481
27,827000000,-1.5432196528433717e-06,-2.0123280922459042e-07,6.903751096252357e-08,0.9999999999987867,0.009661755823468371,-0.0017212593674030851,-3.6333671652157285e-08,4.068608425386133e-06,-3.3794037033723915e-05,9.73494768855407
27,837000000,2.513488778972344e-06,-2.758135800892793e-07,6.908311774431346e-08,0.9999999999968008,-0.010213270566808874,-0.0021282230079915534,5.8782861621473714e-08,5.291205459938218e-06,5.333910777945292e-05,9.865052311242632
27,847000000,-1.5432196528028988e-06,-2.0123280928663792e-07,6.908675548764914e-08,0.9999999999987867,0.009661755823482235,-0.0017212593673710886,-3.633367165157246e-08,4.068608425130203e-06,-3.379403703314297e-05,9.734947688553177
27,857000000,2.5134887789528218e-06,-2.758135799779055e-07,6.913236226943912e-08,0.9999999999968008,-0.010213270566732833,-0.0021282230080052187,5.8782861620767607e-08,5.291205460181141e-06,5.333910777875133e-05,9.865052311240031
27,867000000,-1.5432196528341102e-06,-2.012328093760181e-07,6.913600001277357e-08,0.9999999999987867,0.009661755823486393,-0.0017212593674007218,-3.633367165244649e-08,4.0686084253739895e-06,-3.379403703393512e-05,9.734947688557908
27,877000000,2.513488778988702e-06,-2.7581357985680595e-07,6.918160679456248e-08,0.9999999999968008,-0.01021327056673646,-0.00212822300800481,5.8782861620786374e-08,5.291205460243047e-06,5.333910777920331e-05,9.865052311239737
27,887000000,-1.5432196527952509e-06,-2.0123280943045416e-07,6.918524453789769e-08,0.9999999999987867,0.009661755823468829,-0.0017212593673728393,-3.6333671651635235e-08,4.068608424965101e-06,-3.3794037033345014e-05,9.73494768855444
27,897000000,2.5134887790209207e-06,-2.758135797339834e-07,6.923085131968697e-08,0.9999999999968008,-0.010213270566740547,-0.0021282230080043756,5.878286162079876e-08,5.291205460249364e-06,5.3339107779580886e-05,9.865052311243199
27,907000000,-1.5432196527471496e-06,-2.0123280950373288e-07,6.9234489063022e-08,0.9999999999987867,0.009661755823436657,-0.0017212593673468792,-3.6333671651106336e-08,4.068608424925611e-06,-3.379403703257777e-05,9.734947688550495
27,917000000,2.513488779017797e-06,-2.7581357959901984e-07,6.928009584481099e-08,0.9999999999968008,-0.010213270566743602,-0.0021282230080040343,5.878286162042035e-08,5.291205460018545e-06,5.333910777922472e-05,9.865052311244384
27,927000000,-1.543219652776036e-06,-2.0123280960161993e-07,6.928373358814504e-08,0.9999999999987867,0.009661755823494876,-0.0017212593673996137,-3.6333671652651106e-08,4.068608425331415e-06,-3.3794037033370696e-05,9.73494768855586
27,937000000,2.5134887790077976e-06,-2.758135794760769e-07,6.932934036993367e-08,0.9999999999968008,-0.010213270566726655,-0.0021282230080059534,5.878286162020757e-08,5.291205460053616e-06,5.3339107778757706e-05,9.865052311239307
27,947000000,-1.543219652746316e-06,-2.0123280967243675e-07,6.933297811326742e-08,0.9999999999987867,0.009661755823473256,-0.0017212593674024428,-3.633367165253036e-08,4.068608425232807e-06,-3.379403703295966e-05,9.734947688555232
27,957000000,2.5134887790583942e-06,-2.758135793633934e-07,6.937858489505593e-08,0.9999999999968008,-0.010213270566740082,-0.0021282230080352906,5.8782861620828646e-08,5.291205460263966e-06,5.333910777949906e-05,9.865052311243264
27,967000000,-1.5432196527405808e-06,-2.0123280973145303e-07,6.938222263839104e-08,0.9999999999987867,0.009661755823479112,-0.0017212593673413394,-3.633367165161567e-08,4.068608424926102e-06,-3.379403703304745e-05,9.73494768855375
27,977000000,2.5134887790401475e-06,-2.7581357923108514e-07,6.942782942017896e-08,0.9999999999968008,-0.010213270566734302,-0.002128223008005078,5.878286162006326e-08,5.291205460085212e-06,5.3339107778855514e-05,9.865052311240962
27,987000000,-1.5432196527523885e-06,-2.012328098280655e-07,6.94314671635127e-08,0.9999999999987867,0.009661755823485434,-0.0017212593674008501,-3.633367165293379e-08,4.068608425303649e-06,-3.379403703347367e-05,9.734947688555863
27,997000000,2.513488779063164e-06,-2.758135790973994e-07,6.947707394529987e-08,0.9999999999968008,0.018326686595821096,0.0019790609491461236,-1.8558396406780956e-08,5.952750217294913e-06,4.750530052325587e-05,9.246140734528552
28,7000000,-1.5432196527367006e-06,-2.0123280990777215e-07,6.948071168863388e-08,0.9999999999987867,0.009661755823488598,-0.001721259367400444,-3.633367165309825e-08,3.4291846901248254e-06,-3.248451522628266e-05,10.253157580686922
28,17000000,2.513488779067416e-06,-2.7581357898304774e-07,6.952631847042107e-08,0.9999999999968008,0.018326686595808578,0.001979060949168748,-1.8558396406757232e-08,5.952750217478631e-06,4.750530052307984e-05,9.246140734529153
28,27000000,-1.5432196527362246e-06,-2.012328099795384e-07,6.952995621375451e-08,0.9999999999987867,0.00966175582348531,-0.0017212593674008683,-3.6333671653148393e-08,3.4291846900302694e-06,-3.248451522646986e-05,10.253157580686516
28,37000000,2.5134887790834605e-06,-2.758135788743209e-07,6.95755629955414e-08,0.9999999999968008,-0.010213270566671236,-0.002128223008017299,5.8782861619337914e-08,5.291205460394395e-06,5.333910777887342e-05,9.865052311239243
28,47000000,-1.5432196527046395e-06,-2.012328100539259e-07,6.95792007388751e-08,0.9999999999987867,0.0096617558234861,-0.0017212593673706033,-3.633367165278831e-08,4.06860842526612e-06,-3.3794037033095315e-05,9.734947688556757
28,57000000,2.5134887790908238e-06,-2.7581357874159475e-07,6.962480752066086e-08,0.9999999999968008,-0.010213270566725422,-0.0021282230080060423,5.8782861619703905e-08,5.291205460201761e-06,5.3339107778772735e-05,9.865052311240195
28,67000000,-1.5432196527171316e-06,-2.01232810122405e-07,6.962844526399424e-08,0.9999999999987867,0.009661755823487928,-0.001721259367370363,-3.63336716528336e-08,4.068608425127232e-06,-3.3794037033552544e-05,9.734947688556785
28,77000000,2.513488779111697e-06,-2.7581357861128974e-07,6.967405204577992e-08,0.9999999999968008,-0.010213270566725089,-0.0021282230080061086,5.878286161951532e-08,5.291205460072259e-06,5.333910777891395e-05,9.865052311239532
28,87000000,-1.5432196527094066e-06,-2.0123281021282768e-07,6.96776897891122e-08,0.9999999999987867,0.009661755823473298,-0.001721259367402444,-3.633367165354086e-08,4.068608425402116e-06,-3.379403703358209e-05,9.734947688556598
28,97000000,2.5134887791247042e-06,-2.758135784985032e-07,6.972329657089709e-08,0.9999999999968008,-0.01021327056666531,-0.0021282230080179507,5.8782861618927785e-08,5.291205460302439e-06,5.333910777886735e-05,9.865052311239156
28,107000000,-1.5432196526642572e-06,-2.0123281027981136e-07,6.972693431422998e-08,0.9999999999987867,0.009661755823468215,-0.0017212593673729144,-3.6333671652982196e-08,4.068608425229539e-06,-3.379403703285926e-05,9.73494768855554
28,117000000,2.513488779114816e-06,-2.758135783573176e-07,6.977254109601524e-08,0.9999999999968008,-0.010213270566727476,-0.002128223007974992,5.878286161871865e-08,5.291205459948354e-06,5.333910777841793e-05,9.865052311240307
28,127000000,-1.543219652645038e-06,-2.012328103452564e-07,6.977617883934794e-08,0.9999999999987867,-0.01777517251625923,0.0018704199203885244,1.2406684083904005e-08,4.753052710598605e-06,-2.9107531109601913e-05,9.18273897097491
28,137000000,2.5134887791491055e-06,-2.7581357824291226e-07,6.982178562113337e-08,0.9999999999968008,-0.010213270566727677,-0.0021282230080057972,5.878286161922521e-08,4.819460657562322e-06,5.242953379379901e-05,10.305031750848306
28,147000000,-1.5432196526735805e-06,-2.0123281043741635e-07,6.982542336446588e-08,0.9999999999987867,0.00966175582348527,-0.0017212593674008647,-3.63336716538111e-08,4.0686084253368555e-06,-3.3794037033457344e-05,9.734947688556462
28,157000000,2.5134887791721787e-06,-2.758135781173955e-07,6.987103014625044e-08,0.9999999999968008,-0.010213270566733169,-0.0021282230080052057,5.8782861619136724e-08,5.291205460099993e-06,5.333910777903167e-05,9.865052311240465
28,167000000,-1.5432196526637541e-06,-2.0123281051408564e-07,6.987466788958306e-08,0.9999999999987867,0.00966175582348669,-0.0017212593674006882,-3.633367165393456e-08,4.068608425352361e-06,-3.379403703346359e-05,9.734947688555827
28,177000000,2.513488779205688e-06,-2.758135779938619e-07,6.992027467136679e-08,0.9999999999968008,-0.010213270566656803,-0.0021282230079880263,5.878286161804139e-08,5.291205460117251e-06,5.333910777939699e-05,9.865052311239866
28,187000000,-1.5432196525907568e-06,-2.012328105746395e-07,6.992391241470052e-08,0.9999999999987867,-0.017775172516236122,0.001870419920410057,1.2406684083506637e-08,4.753052710629476e-06,-2.910753110911758e-05,9.182738970973766
28,197000000,2.513488779215187e-06,-2.7581357788267804e-07,6.9969519196485e-08,0.9999999999968008,-0.010213270566678012,-0.002128223008016542,5.878286161857149e-08,4.819460657785498e-06,5.242953379430778e-05,10.305031750848967
28,207000000,-1.5432196525984047e-06,-2.012328106529947e-07,6.997315693981791e-08,0.9999999999987867,0.009661755823441177,-0.0017212593673462822,-3.6333671652888546e-08,4.06860842511301e-06,-3.37940370325175e-05,9.734947688552339
28,217000000,2.5134887792275366e-06,-2.7581357775174813e-07,7.001876372160247e-08,0.9999999999968008,-0.01021327056668793,-0.0021282230080154514,5.878286161834631e-08,5.291205460195704e-06,5.333910777929449e-05,9.865052311244526
28,227000000,-1.5432196526019944e-06,-2.012328107384074e-07,7.00224014649357e-08,0.9999999999987867,0.009661755823469382,-0.0017212593673727843,-3.633367165366338e-08,4.068608425287924e-06,-3.379403703280376e-05,9.734947688553767
28,237000000,2.5134887792234225e-06,-2.758135776182677e-07,7.006800824671901e-08,0.9999999999968008,-0.010213270566749437,-0.00212822300800341,5.878286161867283e-08,5.291205460007293e-06,5.333910777896121e-05,9.865052311242385
28,247000000,-1.5432196526305707e-06,-2.012328108078498e-07,7.007164599005096e-08,0.9999999999987867,0.009661755823495828,-0.0017212593673693328,-3.6333671653847606e-08,4.068608425165691e-06,-3.3794037033586845e-05,9.734947688556325
28,257000000,2.51348877923279e-06,-2.758135774924006e-07,7.011725277183342e-08,0.9999999999968008,-0.010213270566724511,-0.0021282230079752965,5.8782861618055606e-08,5.291205459972978e-06,5.3339107778871215e-05,9.865052311239356
28,267000000,-1.5432196525893253e-06,-2.012328108824174e-07,7.012089051516539e-08,0.9999999999987867,-0.01021327056668063,-0.002128223008745291,3.999226828802048e-08,3.944160972220745e-06,-3.0247105467320926e-05,9.799999999953902
28,277000000,2.513488779243021e-06,-2.758135773747707e-07,7.016649729694754e-08,0.9999999999968008,-0.010213270566726397,-0.0021282230080059725,5.8782861618448364e-08,5.405949573143936e-06,4.926437969363531e-05,9.799999999873416
28,287000000,-1.5432196526080329e-06,-2.0123281096831087e-07,7.017013504027894e-08,0.9999999999987867,0.00966175582348533,-0.0017212593674008584,-3.633367165454739e-08,4.068608425323764e-06,-3.379403703351956e-05,9.734947688556444
28,297000000,2.5134887793045073e-06,-2.7581357726223254e-07,7.021574182206157e-08,0.9999999999968008,-0.010213270566738125,-0.002128223008035516,5.8782861619113795e-08,5.291205460307588e-06,5.333910777977633e-05,9.865052311242772
28,307000000,-1.5432196525854442e-06,-2.0123281104205282e-07,7.021937956539416e-08,0.9999999999987867,0.00966175582349307,-0.0017212593673998707,-3.63336716545902e-08,4.0686084252896335e-06,-3.379403703328348e-05,9.734947688554124
28,317000000,2.5134887792969247e-06,-2.7581357712289044e-07,7.026498634717587e-08,0.9999999999968008,-0.010213270566769269,-0.002128223008001185,5.878286161834591e-08,5.29120546000594e-06,5.333910777935789e-05,9.865052311242136
28,327000000,-1.5432196525703145e-06,-2.0123281110575796e-07,7.026862409050804e-08,0.9999999999987867,0.009661755823455085,-0.0017212593673444658,-3.633367165360485e-08,4.068608425063086e-06,-3.3794037033163776e-05,9.734947688552728
28,337000000,2.5134887793329837e-06,-2.7581357701245746e-07,7.031423087228974e-08,0.9999999999968008,-0.010213270566733986,-0.0021282230080359762,5.8782861618847754e-08,5.291205460243753e-06,5.333910777978683e-05,9.865052311243694
28,347000000,-1.5432196525359436e-06,-2.0123281118529657e-07,7.031786861562175e-08,0.9999999999987867,0.009661755823449853,-0.001721259367375329,-3.633367165404964e-08,4.068608425132287e-06,-3.3794037032661695e-05,9.734947688550909
28,357000000,2.5134887793052205e-06,-2.7581357687894474e-07,7.036347539740333e-08,0.9999999999968008,-0.010213270566758813,-0.0021282230080023647,5.878286161809938e-08,5.291205460065537e-06,5.33391077789524e-05,9.865052311244051
28,367000000,-1.5432196525550739e-06,-2.0123281127229998e-07,7.036711314073406e-08,0.9999999999987867,-0.017775172516280243,0.0018704199203906898,1.2406684084615728e-08,4.753052710895126e-06,-2.910753111011223e-05,9.182738970971656
28,377000000,2.513488779344776e-06,-2.7581357675588387e-07,7.041271992251433e-08,0.9999999999968008,-0.010213270566721503,-0.0021282230080064855,5.878286161801069e-08,4.819460657516831e-06,5.242953379446763e-05,10.305031750849926
28,387000000,-1.5432196525346578e-06,-2.0123281133799935e-07,7.041635766584568e-08,0.9999999999987867,-0.017775172516249885,0.001870419920435407,1.2406684083490191e-08,4.753052710725591e-06,-2.9107531109908807e-05,9.182738970973015
28,397000000,2.513488779329809e-06,-2.758135766225164e-07,7.046196444762604e-08,0.9999999999968008,-0.010213270566739197,-0.0021282230079736697,5.878286161729562e-08,4.819460657309065e-06,5.242953379386427e-05,10.305031750848455
28,407000000,-1.5432196525430426e-06,-2.0123281142348075e-07,7.046560219095674e-08,0.9999999999987867,0.009661755823485742,-0.001721259367400811,-3.633367165515194e-08,4.068608425307502e-06,-3.379403703339854e-05,9.734947688555529
28,417000000,2.513488779343353e-06,-2.7581357651598286e-07,7.051120897273658e-08,0.9999999999968008,-0.0102132705667085,-0.0021282230080079388,5.878286161779926e-08,5.291205460240368e-06,5.333910777887528e-05,9.865052311239436
28,427000000,-1.5432196524879567e-06,-2.0123281148669493e-07,7.051484671606718e-08,0.9999999999987867,0.009661755823448491,-0.001721259367345315,-3.633367165403048e-08,4.068608425083924e-06,-3.379403703247567e-05,9.734947688554026
28,437000000,2.5134887793794502e-06,-2.7581357639221726e-07,7.05604534978477e-08,0.9999999999968008,-0.010213270566743881,-0.0021282230080348534,5.878286161822353e-08,5.291205460213104e-06,5.333910777933848e-05,9.865052311244845
28,447000000,-1.5432196525128222e-06,-2.0123281156516946e-07,7.056409124117837e-08,0.9999999999987867,0.009661755823471282,-0.0017212593673725013,-3.633367165472853e-08,4.068608425131386e-06,-3.3794037033180906e-05,9.734947688553522
28,457000000,2.5134887794163106e-06,-2.7581357627565124e-07,7.06096980229585e-08,0.9999999999968008,-0.010213270566739863,-0.0021282230080353027,5.878286161832174e-08,5.2912054603633205e-06,5.333910777980997e-05,9.865052311243542
28,467000000,-1.543219652564459e-06,-2.0123281165006175e-07,7.061333576628889e-08,0.9999999999987867,0.009661755823515661,-0.0017212593673969175,-3.633367165569674e-08,4.068608425294376e-06,-3.3794037034429216e-05,9.734947688557295
28,477000000,2.513488779388201e-06,-2.75813576132408e-07,7.065894254806694e-08,0.9999999999968008,-0.010213270566780328,-0.0021282230079947223,5.878286161793931e-08,5.291205459990757e-06,5.333910777899426e-05,9.865052311237477
28,487000000,-1.5432196525268312e-06,-2.012328117383893e-07,7.066258029139657e-08,0.9999999999987867,0.00966175582348628,-0.0017212593674007378,-3.6333671655862724e-08,4.06860842553588e-06,-3.379403703387142e-05,9.73494768855648
28,497000000,2.5134887794113868e-06,-2.758135760164319e-07,7.070818707317509e-08,0.9999999999968006,-0.010213270566731549,-0.002128223008005359,5.878286161739651e-08,5.291205460148456e-06,5.3339107779153426e-05,9.865052311239115
28,507000000,-1.5432196524857815e-06,-2.0123281179016174e-07,7.071182481650477e-08,0.9999999999987865,0.00966175582347929,-0.0017212593673714908,-3.6333671655022725e-08,4.068608425067874e-06,-3.379403703323387e-05,9.734947688555609
28,517000000,-6.3740975247039865e-06,6.593958220015349e-07,7.075727219699772e-08,0.9999999999794655,-0.010213270566803677,-0.002128223008543706,1.8502244961691182e-09,-1.3160586211767528e-05,-0.0001220138985371527,9.865052310624847
28,527000000,-1.5432196524572382e-06,-2.0123281187833004e-07,7.076106934161236e-08,0.9999999999987865,0.009661755823492598,-0.0017212593673999143,-3.6333671655701873e-08,4.068608425298503e-06,-3.379403703286745e-05,9.73494768855317
28,537000000,-6.3740975247491104e-06,6.593958216880925e-07,7.080651672210447e-08,0.9999999999794655,0.0183266865957974,0.001979060948861547,5.0898355427177794e-08,-1.1341416829893732e-05,-0.00011684644576932762,9.246140733908783
28,547000000,-1.5432196524463555e-06,-2.0123281195314539e-07,7.081031386672008e-08,0.9999999999987865,0.009661755823469974,-0.00172125936737268,-3.633367165535197e-08,3.4291846899976066e-06,-3.248451522581993e-05,10.253157580685087
28,557000000,2.51348877941757e-06,-2.7581357562979777e-07,7.085592064849825e-08,0.9999999999968006,-0.010213270566726882,-0.0021282230079750428,5.8782861616275215e-08,5.291205459841599e-06,5.333910777843978e-05,9.86505231124034
28,568000000,2.5134887794458246e-06,-2.758135755540924e-07,7.088546736356253e-08,0.9999999999968006,0.01832668659582281,0.0019790609491462997,-1.855839640655996e-08,5.9576447483061e-06,4.4120834840468116e-05,9.287703954260383
28,578000000,-6.3740975248256526e-06,6.593958210569888e-07,7.090500577231746e-08,0.9999999999794655,-0.017775172516211087,0.001870419920977169,-1.1743275606445421e-10,-1.2900839847145467e-05,-0.0001228981172385768,9.807990723338216
28,588000000,7.62012354910794e-06,7.882984016162617e-07,7.090923592209441e-08,0.9999999999706537,0.018326686595718192,0.0019790609501354173,2.3220051369378488e-10,-1.547190515017033e-05,0.0001470965814049677,9.792009274766817
28,599000000,-1.543219652425488e-06,-2.0123281215418177e-07,7.09383496319973e-08,0.9999999999987865,-0.010213270566685077,-0.0021282230087139144,3.999226828633984e-08,3.176470568525523e-06,-2.9040682321640025e-05,10.42613961129147
28,609000000,2.5134887794798177e-06,-2.7581357532135157e-07,7.098395641377433e-08,0.9999999999968006,-0.0102132705667414,-0.0021282230080042737,5.8782861616733195e-08,5.405949573162641e-06,4.926437969387107e-05,9.799999999874691
28,619000000,-1.5432196524389194e-06,-2.0123281223085287e-07,7.098759415710327e-08,0.9999999999987865,-0.017775172516284708,0.0018704199203911558,1.2406684084740907e-08,4.753052710925382e-06,-2.9107531110228687e-05,9.182738970972077
28,629000000,2.513488779512247e-06,-2.7581357519583664e-07,7.103320093887896e-08,0.9999999999968006,0.018326686595815895,0.001979060949145575,-1.855839640712627e-08,5.367676458910731e-06,4.7088149865707064e-05,9.792009275770125
28,639000000,-1.543219652384622e-06,-2.0123281230303225e-07,7.103683868220851e-08,0.9999999999987865,-0.017775172516254302,0.00187041992041194,1.2406684084073051e-08,3.981242173488124e-06,-2.8135707713963293e-05,9.807990724075243
28,649000000,2.5134887794809104e-06,-2.7581357506194826e-07,7.108244546398456e-08,0.9999999999968006,-0.010213270566728657,-0.002128223007974861,5.878286161583144e-08,4.819460657284409e-06,5.2429533793390005e-05,10.305031750847677
28,659000000,-1.5432196523939894e-06,-2.0123281236233684e-07,7.108608320731288e-08,0.9999999999987865,0.009661755823491077,-0.0017212593673397783,-3.6333671655342904e-08,4.068608424972e-06,-3.379403703288859e-05,9.734947688556085
28,669000000,2.513488779537947e-06,-2.758135749559132e-07,7.113168998908825e-08,0.9999999999968006,-0.010213270566728255,-0.0021282230080057175,5.8782861616557065e-08,5.291205460201506e-06,5.33391077793279e-05,9.865052311241918
28,679000000,-1.5432196523707713e-06,-2.0123281244394624e-07,7.113532773241707e-08,0.9999999999987865,0.009661755823466667,-0.0017212593673429488,-3.6333671655441245e-08,4.06860842509005e-06,-3.379403703260693e-05,9.734947688552662
28,689000000,2.5134887794963916e-06,-2.7581357481652057e-07,7.118093451419194e-08,0.9999999999968006,-0.010213270566698513,-0.0021282230079781917,5.878286161551696e-08,5.291205459898994e-06,5.333910777819482e-05,9.865052311240312
28,699000000,-1.5432196523861873e-06,-2.0123281253442365e-07,7.118457225751949e-08,0.9999999999987865,0.009661755823468612,-0.0017212593674030255,-3.633367165663986e-08,4.0686084253473105e-06,-3.379403703309747e-05,9.73494768855727
28,709000000,2.5134887795233255e-06,-2.758135746984859e-07,7.123017903929473e-08,0.9999999999968006,-0.010213270566730959,-0.0021282230080054633,5.878286161602873e-08,5.291205460020208e-06,5.333910777848193e-05,9.865052311240953
28,719000000,-1.5432196523710644e-06,-2.0123281260008247e-07,7.123381678262257e-08,0.9999999999987865,0.009661755823494302,-0.0017212593673695197,-3.6333671656242783e-08,4.068608425162367e-06,-3.379403703301953e-05,9.734947688556078
28,729000000,2.513488779557484e-06,-2.7581357458615366e-07,7.127942356439696e-08,0.9999999999968006,0.01832668659579039,0.0019790609491429417,-1.8558396407335825e-08,5.952750217642156e-06,4.75053005232299e-05,9.24614073452953
28,739000000,-1.5432196523784904e-06,-2.012328126863534e-07,7.128306130772528e-08,0.9999999999987865,0.009661755823493134,-0.0017212593673998533,-3.633367165696214e-08,3.429184690061313e-06,-3.248451522639491e-05,10.253157580687084
28,749000000,2.5134887795458524e-06,-2.758135744429571e-07,7.13286680894987e-08,0.9999999999968006,-0.01021327056672483,-0.0021282230079752696,5.8782861615254904e-08,5.29120545986944e-06,5.3339107778383744e-05,9.865052311238319
28,759000000,-1.5432196523947178e-06,-2.012328127527485e-07,7.133230583282602e-08,0.9999999999987865,0.009661755823498559,-0.0017212593673689668,-3.6333671656621414e-08,4.0686084251693895e-06,-3.3794037033879756e-05,9.734947688559695
28,769000000,2.5134887796286685e-06,-2.758135743462011e-07,7.137791261459856e-08,0.9999999999968006,-0.010213270566677039,-0.002128223008016674,5.878286161563437e-08,5.291205460392912e-06,5.333910777976081e-05,9.865052311239651
28,779000000,-1.5432196523604723e-06,-2.012328128371868e-07,7.138155035792672e-08,0.9999999999987865,0.009661755823482521,-0.001721259367401216,-3.6333671657127906e-08,4.068608425328971e-06,-3.37940370333699e-05,9.734947688554415
28,789000000,2.5134887796199356e-06,-2.7581357421545784e-07,7.142715713969939e-08,0.9999999999968006,-0.010213270566676702,-0.0021282230080167004,5.878286161532341e-08,5.291205460261585e-06,5.3339107779303e-05,9.865052311240513
28,799000000,-1.543219652305161e-06,-2.012328129011146e-07,7.14307948830278e-08,0.9999999999987865,0.009661755823467963,-0.0017212593673427954,-3.633367165608203e-08,4.0686084251129026e-06,-3.379403703246649e-05,9.734947688554016
28,809000000,2.513488779584986e-06,-2.758135740777953e-07,7.147640166480082e-08,0.9999999999968006,-0.010213270566740745,-0.002128223008004368,5.8782861615456756e-08,5.291205459962501e-06,5.333910777834998e-05,9.865052311241403
28,819000000,-1.543219652342522e-06,-2.01232812989548e-07,7.148003940812787e-08,0.9999999999987865,0.009661755823471655,-0.0017212593674026419,-3.6333671657320103e-08,4.068608425344544e-06,-3.379403703341747e-05,9.734947688556845
28,829000000,2.5134887796322718e-06,-2.758135739637077e-07,7.152564618990063e-08,0.9999999999968006,0.01832668659581783,0.0019790609491218574,-1.855839640756261e-08,5.9527502175747815e-06,4.750530052337235e-05,9.24614073452881
28,839000000,-1.5432196523183544e-06,-2.0123281306289513e-07,7.152928393322834e-08,0.9999999999987865,0.009661755823482669,-0.0017212593673710513,-3.6333671656997126e-08,3.42918469000723e-06,-3.2484515226188844e-05,10.253157580686333
28,849000000,2.513488779648522e-06,-2.758135738388747e-07,7.157489071500047e-08,0.9999999999968006,-0.010213270566735697,-0.0021282230080049247,5.878286161551846e-08,5.291205460140135e-06,5.3339107779079266e-05,9.865052311241383
28,859000000,-1.5432196523254381e-06,-2.0123281314187142e-07,7.157852845832732e-08,0.9999999999987865,0.00966175582348468,-0.001721259367400947,-3.6333671657588083e-08,4.068608425353022e-06,-3.379403703346795e-05,9.734947688555199
28,869000000,2.5134887796911118e-06,-2.7581357370689576e-07,7.162413524009952e-08,0.9999999999968006,-0.010213270566737678,-0.0021282230080046853,5.878286161537108e-08,5.291205459985339e-06,5.3339107779661544e-05,9.86505231124247
28,879000000,-1.5432196523280512e-06,-2.012328132171085e-07,7.16277729834276e-08,0.9999999999987865,0.009661755823493047,-0.001721259367399874,-3.633367165774356e-08,4.068608425338897e-06,-3.379403703372786e-05,9.7349476885558
28,889000000,2.513488779655805e-06,-2.7581357358838177e-07,7.167337976519823e-08,0.9999999999968006,-0.010213270566724272,-0.0021282230080061993,5.87828616151549e-08,5.291205460090605e-06,5.33391077786641e-05,9.865052311237926
28,899000000,-1.5432196523044605e-06,-2.0123281329491048e-07,7.167701750852479e-08,0.9999999999987865,0.009661755823485378,-0.0017212593674008382,-3.633367165781857e-08,4.068608425373934e-06,-3.379403703343152e-05,9.73494768855641
28,909000000,2.5134887796729463e-06,-2.758135734532259e-07,7.172262429029522e-08,0.9999999999968006,-0.010213270566735046,-0.002128223007974128,5.878286161449939e-08,5.291205459870198e-06,5.3339107778738305e-05,9.86505231124014
28,919000000,-1.54321965223781e-06,-2.012328133504605e-07,7.172626203362165e-08,0.9999999999987865,0.009661755823440563,-0.0017212593673463625,-3.633367165649233e-08,4.0686084249899015e-06,-3.379403703229591e-05,9.734947688552738
28,929000000,2.513488779691244e-06,-2.7581357333832367e-07,7.177186881539373e-08,0.9999999999968006,-0.010213270566812708,-0.002128223008022007,5.8782861616026366e-08,5.2912054600060895e-06,5.3339107778854925e-05,9.86505231124516
28,939000000,-1.5432196522733507e-06,-2.0123281343061786e-07,7.177550655871969e-08,0.9999999999987865,-0.01777517251627836,0.0018704199204144227,1.240668408385536e-08,4.7530527106695804e-06,-2.910753111005285e-05,9.182738970971757
28,949000000,2.5134887797175832e-06,-2.7581357322103586e-07,7.182111334048995e-08,0.9999999999968006,-0.010213270566735997,-0.0021282230080048657,5.878286161498649e-08,4.819460657592318e-06,5.242953379405158e-05,10.305031750849428
28,959000000,-1.543219652245092e-06,-2.0123281352040568e-07,7.18247510838159e-08,0.9999999999987865,0.009661755823473684,-0.0017212593674023836,-3.633367165795684e-08,4.068608425328387e-06,-3.3794037032841815e-05,9.734947688553971
28,969000000,2.5134887797521972e-06,-2.75813573094436e-07,7.187035786558651e-08,0.9999999999968006,0.018326686595832253,0.001979060949123339,-1.8558396407553218e-08,5.952750217520421e-06,4.750530052385852e-05,9.246140734529378
28,979000000,7.620123548301768e-06,7.882984089590072e-07,7.187442861404502e-08,0.9999999999706537,-0.017775172516245292,0.0018704199199867432,-5.7050068468155176e-08,-1.5429371010824216e-05,0.00015161226390159163,9.807990722932868
28,989000000,2.5134887797392004e-06,-2.758135729726281e-07,7.191960239068158e-08,0.9999999999968006,-0.010213270566737804,-0.002128223008004692,5.878286161473746e-08,4.819460657581257e-06,5.2429533793941254e-05,10.305031750849842
28,999000000,7.620123548325854e-06,7.882984093471631e-07,7.19236731391381e-08,0.9999999999706537,0.009661755823490081,-0.001721259367546521,1.4332514609249836e-08,-1.5197448127087325e-05,0.00014461529776921004,9.734947687526269
29,9000000,2.5134887797752967e-06,-2.7581357284064343e-07,7.196884691577682e-08,0.9999999999968006,-0.010213270566747134,-0.002128223008003632,5.878286161460069e-08,5.291205459964609e-06,5.3339107779424835e-05,9.865052311244792
29,19000000,-1.5432196522663728e-06,-2.0123281373936995e-07,7.197248465910356e-08,0.9999999999987865,0.00966175582345824,-0.0017212593673742243,-3.633367165786428e-08,4.068608425165765e-06,-3.3794037033844465e-05,9.734947688554747
29,29000000,2.513488779764446e-06,-2.7581357272500194e-07,7.201809144087249e-08,0.9999999999968006,-0.010213270566740608,-0.00212822300800437,5.8782861614522664e-08,5.291205460134114e-06,5.3339107778924815e-05,9.865052311240271
29,39000000,-1.5432196522068857e-06,-2.012328138243913e-07,7.202172918419826e-08,0.9999999999987865,0.009661755823474246,-0.0017212593673721275,-3.633367165802545e-08,4.068608425342043e-06,-3.3794037032862917e-05,9.734947688554424
29,49000000,2.5134887797589676e-06,-2.7581357259044853e-07,7.206733596596683e-08,0.9999999999968006,-0.010213270566708123,-0.0021282230079771166,5.878286161369059e-08,5.291205459928827e-06,5.333910777851988e-05,9.865052311239978
29,59000000,-1.5432196522142278e-06,-2.0123281389380692e-07,7.207097370929217e-08,0.9999999999987865,-0.017775172516281402,0.0018704199204147387,1.2406684084141426e-08,4.753052710785507e-06,-2.9107531109987686e-05,9.182738970975356
29,69000000,2.5134887797760658e-06,-2.758135724568298e-07,7.211658049105933e-08,0.9999999999968006,-0.010213270566732597,-0.0021282230079435614,5.8782861613114644e-08,4.819460657153511e-06,5.24295337935324e-05,10.305031750847714
29,79000000,-1.5432196521652422e-06,-2.0123281396765602e-07,7.212021823438477e-08,0.9999999999987865,0.009661755823477964,-0.0017212593673716443,-3.6333671658009734e-08,4.06860842516075e-06,-3.379403703241354e-05,9.734947688554156
29,89000000,2.5134887798403048e-06,-2.758135723476352e-07,7.216582501615363e-08,0.9999999999968006,-0.010213270566731379,-0.0021282230080054043,5.878286161421391e-08,5.291205460010768e-06,5.333910777961585e-05,9.865052311244156
29,99000000,-1.5432196521616126e-06,-2.0123281405229282e-07,7.216946275947974e-08,0.9999999999987865,0.009661755823452836,-0.001721259367374924,-3.63336716582285e-08,4.068608425344553e-06,-3.379403703253455e-05,9.734947688551822
29,109000000,2.513488779814316e-06,-2.758135722192952e-07,7.221506954124775e-08,0.9999999999968006,-0.01021327056679184,-0.002128223007993458,5.8782861614535436e-08,5.291205459913236e-06,5.3339107778849226e-05,9.865052311244346
29,119000000,7.620123548024162e-06,7.882984115813049e-07,7.221914028969534e-08,0.9999999999706537,0.009661755823522506,-0.0017212593676026486,1.4332514608328907e-08,-1.5197448126761114e-05,0.00014461529776788382,9.734947687529235
29,129000000,2.5134887798038713e-06,-2.7581357209715735e-07,7.226431406633895e-08,0.9999999999968006,-0.010213270566729216,-0.0021282230079747847,5.8782861613330505e-08,5.291205459969236e-06,5.333910777834057e-05,9.865052311238369
29,139000000,-1.543219652137307e-06,-2.0123281420233243e-07,7.226795180966436e-08,0.9999999999987865,0.009661755823455773,-0.0017212593673745287,-3.633367165839711e-08,4.068608425301165e-06,-3.379403703243434e-05,9.734947688554128
29,149000000,2.51348877988354e-06,-2.7581357197660666e-07,7.231355859143256e-08,0.9999999999968006,0.01832668659583898,0.0019790609491240406,-1.8558396407429383e-08,5.9527502174399635e-06,4.7505300524017916e-05,9.246140734531634
29,159000000,-1.5432196521266505e-06,-2.0123281426757366e-07,7.23171963347579e-08,0.9999999999987865,0.009661755823476432,-0.0017212593673416867,-3.633367165799267e-08,3.429184689784715e-06,-3.2484515225519186e-05,10.25315758068516
29,169000000,2.5134887798424266e-06,-2.758135718455212e-07,7.236280311652461e-08,0.9999999999968006,-0.01021327056672766,-0.002128223007974965,5.878286161309508e-08,5.291205459868636e-06,5.3339107778557474e-05,9.865052311241417
29,179000000,7.620123547936194e-06,7.88298412717779e-07,7.236687386496771e-08,0.9999999999706535,0.009661755823533114,-0.0017212593675711041,1.4332514608086054e-08,-1.5197448126977284e-05,0.0001446152977684976,9.734947687530962
29,189000000,-6.374097525842503e-06,6.593958114673787e-07,7.241188824030086e-08,0.9999999999794655,-0.010213270566782182,-0.0021282230085461194,1.850224492096719e-09,-1.3160586212037647e-05,-0.00012201389853813218,9.865052310621456
29,199000000,-1.543219652114908e-06,-2.012328144248735e-07,7.241568538493845e-08,0.9999999999987865,0.009661755823480894,-0.0017212593673712768,-3.6333671658709595e-08,4.068608425202792e-06,-3.379403703258892e-05,9.734947688554808
29,209000000,2.5134887798887144e-06,-2.758135716062446e-07,7.246129216670468e-08,0.9999999999968006,-0.010213270566732604,-0.002128223008005277,5.878286161346567e-08,5.291205460032269e-06,5.3339107778941424e-05,9.8650523112421
29,219000000,-1.5432196521573512e-06,-2.0123281451166378e-07,7.246492991002936e-08,0.9999999999987865,0.009661755823487054,-0.0017212593674006355,-3.633367165957468e-08,4.068608425404185e-06,-3.379403703363203e-05,9.734947688557202
29,229000000,2.5134887798884764e-06,-2.758135714658008e-07,7.251053669179427e-08,0.9999999999968006,-0.010213270566750388,-0.0021282230079724455,5.8782861612687296e-08,5.291205459717878e-06,5.3339107778671125e-05,9.86505231123925
29,239000000,-1.5432196521242238e-06,-2.0123281457568867e-07,7.251417443511902e-08,0.9999999999987865,0.00966175582346335,-0.0017212593673735623,-3.6333671658945844e-08,4.06860842517587e-06,-3.379403703315932e-05,9.73494768855502
29,249000000,2.513488779901657e-06,-2.758135713512347e-07,7.255978121688379e-08,0.9999999999968006,-0.01021327056671034,-0.0021282230079768733,5.8782861612619864e-08,5.291205459891214e-06,5.333910777863062e-05,9.86505231123979
29,259000000,-1.5432196520863648e-06,-2.012328146394443e-07,7.25634189602079e-08,0.9999999999987865,-0.017775172516258847,0.0018704199204124133,1.2406684083553689e-08,4.753052710532029e-06,-2.9107531109425568e-05,9.182738970974988
29,269000000,2.5134887799246565e-06,-2.758135712246517e-07,7.260902574197303e-08,0.9999999999968006,-0.010213270566797416,-0.0021282230079928553,5.8782861613606294e-08,4.819460657242456e-06,5.242953379380085e-05,10.305031750849658
29,279000000,-1.5432196520941914e-06,-2.0123281471979385e-07,7.261266348529707e-08,0.9999999999987865,0.00966175582347068,-0.0017212593673424177,-3.6333671658629974e-08,4.068608425045928e-06,-3.379403703296386e-05,9.73494768855357
29,289000000,2.513488779970731e-06,-2.758135711139808e-07,7.265827026706168e-08,0.9999999999968006,0.018326686595845215,0.0019790609491725474,-1.8558396406888493e-08,5.9527502175179845e-06,4.750530052389719e-05,9.246140734529712
29,299000000,-1.5432196520956644e-06,-2.0123281481804057e-07,7.266190801038542e-08,0.9999999999987865,0.009661755823495129,-0.0017212593673995825,-3.633367165999669e-08,3.4291846901345057e-06,-3.24845152263446e-05,10.253157580687505
29,309000000,-6.374097526010598e-06,6.593958095749187e-07,7.270735539083124e-08,0.9999999999794655,-0.010213270566784978,-0.002128223008545806,1.8502244917077702e-09,-1.3160586211858677e-05,-0.00012201389853763858,9.865052310622959
29,319000000,7.620123547654291e-06,7.882984153376639e-07,7.271158554058263e-08,0.9999999999706535,0.009661755823475863,-0.0017212593676087437,1.433251460755304e-08,-1.5197448126829254e-05,0.00014461529776828183,9.734947687527635
29,329000000,2.513488779972795e-06,-2.7581357087206596e-07,7.275675931723694e-08,0.9999999999968006,-0.010213270566739952,-0.002128223008004437,5.878286161299378e-08,5.291205460201793e-06,5.3339107778974166e-05,9.865052311242007
29,339000000,-1.5432196520428391e-06,-2.012328149458515e-07,7.27603970605597e-08,0.9999999999987865,0.009661755823468631,-0.0017212593673427133,-3.6333671658836345e-08,4.068608425004713e-06,-3.379403703250871e-05,9.734947688552804
29,349000000,2.5134887799682974e-06,-2.7581357073164124e-07,7.280600384232311e-08,0.9999999999968006,-0.010213270566738911,-0.00212822300797371,5.878286161215538e-08,5.291205459861282e-06,5.333910777861195e-05,9.86505231124253
29,359000000,-1.5432196520866807e-06,-2.0123281503059597e-07,7.280964158564645e-08,0.9999999999987865,0.009661755823473603,-0.001721259367372226,-3.633367165966363e-08,4.0686084251599705e-06,-3.379403703358055e-05,9.734947688556785
29,369000000,2.513488779986516e-06,-2.7581357061383124e-07,7.285524836740947e-08,0.9999999999968006,-0.0102132705667349,-0.0021282230080050127,5.878286161252344e-08,5.291205459981426e-06,5.333910777870243e-05,9.865052311239879
29,379000000,-1.5432196520625318e-06,-2.0123281511484113e-07,7.285888611073227e-08,0.9999999999987865,0.00966175582348539,-0.0017212593674008484,-3.6333671660278876e-08,4.068608425319083e-06,-3.3794037033297e-05,9.73494768855587
29,389000000,2.5134887800181038e-06,-2.7581357050403745e-07,7.290449289249432e-08,0.9999999999968006,-0.01021327056668865,-0.002128223008015356,5.8782861612120664e-08,5.2912054602714336e-06,5.3339107779043684e-05,9.86505231124038
29,399000000,-1.54321965202949e-06,-2.012328151893849e-07,7.29081306358174e-08,0.9999999999987865,0.009661755823490045,-0.0017212593674002488,-3.633367166029589e-08,4.0686084252863105e-06,-3.379403703282044e-05,9.73494768855517
29,409000000,2.5134887800067103e-06,-2.7581357037070917e-07,7.29537374175801e-08,0.9999999999968006,-0.010213270566731537,-0.0021282230080053944,5.8782861612377514e-08,5.291205460074582e-06,5.333910777855572e-05,9.865052311240555
29,419000000,-1.543219652071845e-06,-2.0123281527163815e-07,7.295737516090194e-08,0.9999999999987865,0.009661755823539713,-0.0017212593674239467,-3.633367166119988e-08,4.0686084254038686e-06,-3.379403703389417e-05,9.73494768855951
29,429000000,2.513488780025125e-06,-2.7581357024252577e-07,7.3002981942663e-08,0.9999999999968006,-0.01021327056675183,-0.0021282230080031366,5.878286161225222e-08,5.29120545999757e-06,5.3339107778674466e-05,9.865052311237896
29,439000000,-1.5432196519909567e-06,-2.012328153327125e-07,7.300661968598567e-08,0.9999999999987865,0.009661755823438544,-0.0017212593673466372,-3.6333671659404096e-08,4.068608425145587e-06,-3.379403703243957e-05,9.734947688552019
29,449000000,2.513488780037228e-06,-2.7581357010879737e-07,7.305222646774843e-08,0.9999999999968006,-0.010213270566813083,-0.002128223007991118,5.8782861612622154e-08,5.291205459764227e-06,5.33391077786411e-05,9.865052311244831
29,459000000,-1.543219652021062e-06,-2.01232815405533e-07,7.305586421107034e-08,0.9999999999987865,0.009661755823516062,-0.0017212593673666722,-3.633367166016989e-08,4.068608425078353e-06,-3.379403703328783e-05,9.734947688556224
29,469000000,2.513488780062965e-06,-2.758135700014026e-07,7.310147099283158e-08,0.9999999999968006,-0.010213270566744932,-0.002128223008003887,5.878286161217046e-08,5.29120546010492e-06,5.3339107778874745e-05,9.865052311239648
29,480000000,7.6201235473540234e-06,7.882984183430121e-07,7.31055417412518e-08,0.9999999999706535,0.009661755823502762,-0.0017212593675750574,1.4332514606526004e-08,-1.5197448126881335e-05,0.00014461529776850748,9.734947687528573
29,490000000,-6.374097526322094e-06,6.593958067568248e-07,7.315055611658816e-08,0.9999999999794655,-0.01777517251621731,0.0018704199210017444,-1.1743275639460854e-10,-1.1607983121524703e-05,-0.00011646733634302275,9.354106713180325
29,500000000,7.620123547337948e-06,7.882984187171561e-07,7.315478626633317e-08,0.9999999999706535,0.018326686595733936,0.0019790609501131196,2.3220051335961518e-10,-1.547190514997428e-05,0.00014709658140497802,9.792009274767445
29,510000000,-6.3740975264229034e-06,6.593958064502101e-07,7.31998006416695e-08,0.9999999999794655,-0.010213270566791662,-0.0021282230085141692,1.8502244902331593e-09,-1.4769605139839482e-05,-0.0001297754953343011,10.4261396105108
29,520000000,7.620123547303338e-06,7.882984190965913e-07,7.320403079141265e-08,0.9999999999706535,0.018326686595736913,0.0019790609501134245,2.3220051349814925e-10,-1.3808662560101912e-05,0.00013897866012590318,9.287703953317942
29,530000000,-6.374097526409235e-06,6.593958061217589e-07,7.324904516674857e-08,0.9999999999794655,-0.017775172516202444,0.0018704199210002042,-1.1743275604510007e-10,-1.2900839847253762e-05,-0.0001228981172393281,9.807990723338442
29,540000000,7.620123547288204e-06,7.882984194742703e-07,7.325327531649266e-08,0.9999999999706535,0.009661755823462062,-0.0017212593675502172,1.4332514606422047e-08,-1.7199804956582634e-05,0.00015426150337341458,10.344980681827856
29,550000000,-6.374097526368715e-06,6.59395805812028e-07,7.329828969182998e-08,0.9999999999794655,-0.017775172516209057,0.0018704199210008877,-1.174327564608429e-10,-1.1607983121479429e-05,-0.0001164673363421153,9.354106713184596
29,560000000,7.620123547204606e-06,7.882984198452498e-07,7.330251984157305e-08,0.9999999999706535,0.009661755823528967,-0.0017212593676018074,1.4332514606246268e-08,-1.7199804956528803e-05,0.00015426150337246043,10.344980681831426
29,570000000,-6.374097526405107e-06,6.593958054978442e-07,7.33475342169096e-08,0.9999999999794655,-0.01777517251620392,0.0018704199210003644,-1.1743275643100824e-10,-1.160798312144938e-05,-0.00011646733634211206,9.35410671318057
29,580000000,7.620123547182721e-06,7.882984202305741e-07,7.335176436665207e-08,0.9999999999706535,0.018326686595726144,0.001979060950160163,2.322005139711793e-10,-1.547190515020406e-05,0.00014709658140494512,9.792009274766597
29,590000000,-6.37409752649147e-06,6.593958051767865e-07,7.339677874199002e-08,0.9999999999794655,-0.01777517251623627,0.0018704199209797756,-1.1743275585139785e-10,-1.2900839847209637e-05,-0.00012289811723901166,9.807990723338241
29,600000000,7.620123547116612e-06,7.882984205893064e-07,7.340100889173125e-08,0.9999999999706535,0.018326686595719118,0.0019790609501115805,2.3220051332841476e-10,-1.5471905149885076e-05,0.00014709658140440882,9.792009274766864
29,610000000,-6.374097526533333e-06,6.593958048677855e-07,7.344602326706852e-08,0.9999999999794655,-0.017775172516230828,0.0018704199210031415,-1.1743275610564347e-10,-1.2900839847284403e-05,-0.0001228981172391798,9.807990723337763
29,620000000,7.6201235471377505e-06,7.882984209735626e-07,7.345025341680937e-08,0.9999999999706535,0.018326686595729846,0.0019790609501366173,2.3220051350011884e-10,-1.547190515006489e-05,0.000147096581405625,9.792009274766626
29,630000000,-6.3740975265542545e-06,6.59395804556014e-07,7.34952677921473e-08,0.9999999999794655,-0.017775172516224253,0.0018704199210024645,-1.1743275621879363e-10,-1.2900839847330473e-05,-0.00012289811723900185,9.807990723338401
29,640000000,7.6201235470299435e-06,7.882984213549624e-07,7.349949794188765e-08,0.9999999999706535,0.0183266865957109,0.0019790609501585837,2.3220051407193334e-10,-1.547190515017456e-05,0.00014709658140424836,9.79200927476712
29,650000000,-6.374097526611404e-06,6.593958042406224e-07,7.354451231722496e-08,0.9999999999794655,-0.017775172516246676,0.0018704199209808627,-1.1743275594891443e-10,-1.2900839847319983e-05,-0.0001228981172394473,9.807990723337866
29,660000000,7.620123547009344e-06,7.882984217227034e-07,7.354874246696405e-08,0.9999999999706535,0.018326686595722414,0.001979060950135852,2.3220051365578824e-10,-1.5471905150026957e-05,0.00014709658140461089,9.792009274766585
29,670000000,-6.374097526623076e-06,6.593958039361189e-07,7.35937568423015e-08,0.9999999999794655,-0.01777517251622926,0.0018704199210029778,-1.1743275647694034e-10,-1.290083984748747e-05,-0.00012289811723905018,9.807990723338218
29,680000000,7.620123546958479e-06,7.882984221035349e-07,7.359798699204039e-08,0.9999999999706535,0.009661755823508133,-0.0017212593676045526,1.4332514605766168e-08,-1.7199804956666443e-05,0.00015426150337222627,10.344980681832087
29,690000000,-1.5432196519112289e-06,-2.01232816302156e-07,7.362710070200273e-08,0.9999999999987865,-0.010213270566669562,-0.002128223008715674,3.999226828031811e-08,3.819713519677318e-06,-2.6700173902390828e-05,9.865052311348633
29,700000000,7.620123546920122e-06,7.882984224736335e-07,7.364723151711605e-08,0.9999999999706535,0.01832668659570906,0.00197906095013447,2.3220051372150673e-10,-1.380866256007227e-05,0.00013897866012526898,9.28770395331632
29,710000000,-6.374097526696601e-06,6.593958033096595e-07,7.369224589245507e-08,0.9999999999794655,-0.017775172516249126,0.001870419921005037,-1.1743275648336275e-10,-1.2900839847512761e-05,-0.00012289811723921064,9.807990723337037
29,720000000,7.6201235468411916e-06,7.882984228493803e-07,7.369647604219213e-08,0.9999999999706535,0.018326686595682283,0.001979060950155624,2.3220051397284501e-10,-1.547190515004568e-05,0.0001470965814036079,9.792009274767903
29,730000000,-6.374097526708522e-06,6.593958029801834e-07,7.374149041752961e-08,0.9999999999794655,-0.01777517251621847,0.0018704199209779331,-1.1743275588101988e-10,-1.2900839847224614e-05,-0.00012289811723879918,9.80799072333786
29,740000000,7.62012354690075e-06,7.882984232244286e-07,7.374572056726709e-08,0.9999999999706535,0.018326686595733135,0.0019790609501130325,2.322005134359598e-10,-1.5471905150050467e-05,0.00014709658140553986,9.792009274767091
29,750000000,-6.374097526708485e-06,6.593958026592925e-07,7.379073494260647e-08,0.9999999999794653,-0.017775172516205896,0.0018704199209766377,-1.1743275574860662e-10,-1.2900839847068935e-05,-0.00012289811723817615,9.807990723338024
29,760000000,7.620123546814722e-06,7.882984236108697e-07,7.37949650923437e-08,0.9999999999706535,0.01832668659569704,0.001979060950157153,2.3220051417893781e-10,-1.547190515025438e-05,0.00014709658140459316,9.792009274766668
29,770000000,-6.374097526799781e-06,6.593958023524861e-07,7.383997946768247e-08,0.9999999999794653,-0.017775172516232556,0.001870419920979392,-1.1743275577728166e-10,-1.290083984722578e-05,-0.00012289811723934592,9.80799072333787
29,780000000,7.620123546818657e-06,7.882984239780909e-07,7.384420961741746e-08,0.9999999999706535,0.018326686595743807,0.0019790609501380684,2.322005136493317e-10,-1.547190515010367e-05,0.00014709658140546806,9.79200927476745
29,790000000,-6.374097526805797e-06,6.593958020394506e-07,7.388922399275688e-08,0.9999999999794653,-0.01777517251621874,0.0018704199209779624,-1.1743275590108098e-10,-1.2900839847233435e-05,-0.00012289811723881612,9.807990723337682
29,800000000,7.620123546784276e-06,7.88298424351127e-07,7.389345414249233e-08,0.9999999999706535,0.00966175582346974,-0.0017212593675492056,1.4332514604991748e-08,-1.719980495654874e-05,0.00015426150337342104,10.344980681829115
29,810000000,-1.5432196518160986e-06,-2.0123281674401413e-07,7.392256785246239e-08,0.9999999999987863,-0.017775172516263392,0.0018704199203889507,1.2406684084293182e-08,4.492847437534001e-06,-2.6090243205872043e-05,9.354106713877995
29,820000000,7.620123546671031e-06,7.88298424726346e-07,7.394269866756754e-08,0.9999999999706535,0.018326686595694447,0.001979060950132963,2.3220051384412007e-10,-1.547190515005944e-05,0.00014709658140405315,9.79200927476709
29,830000000,-6.374097526834753e-06,6.593958014051841e-07,7.398771304290643e-08,0.9999999999794653,-0.017775172516196723,0.0018704199209756888,-1.1743275579605246e-10,-1.290083984710734e-05,-0.00012289811723808545,9.807990723337975
29,840000000,7.620123546624952e-06,7.88298425093326e-07,7.399194319264042e-08,0.9999999999706535,0.01832668659570172,0.0019790609501337134,2.3220051357273486e-10,-1.5471905149896165e-05,0.00014709658140389764,9.792009274766848
29,850000000,-6.374097526887413e-06,6.593958011032586e-07,7.403695756797933e-08,0.9999999999794653,-0.010213270566790599,-0.0021282230085451644,1.8502244887653339e-09,-1.4769605139658572e-05,-0.00012977549533254584,10.42613961051413
29,860000000,7.620123546601999e-06,7.882984254830947e-07,7.404118771771214e-08,0.9999999999706535,0.018326686595710375,0.001979060950158529,2.3220051411954214e-10,-1.3808662560193356e-05,0.0001389786601251228,9.287703953315422
29,870000000,-6.374097526892157e-06,6.593958007894096e-07,7.408620209305076e-08,0.9999999999794653,-0.017775172516177554,0.0018704199210215525,-1.174327564831304e-10,-1.2900839847335392e-05,-0.00012289811723794307,9.807990723338799
29,880000000,7.620123546592528e-06,7.882984258549944e-07,7.409043224278348e-08,0.9999999999706535,0.01832668659572608,0.0019790609501362318,2.322005138110116e-10,-1.547190515013135e-05,0.00014709658140478138,9.792009274766281
29,890000000,-6.374097526965735e-06,6.593958004723848e-07,7.413544661812299e-08,0.9999999999794653,-0.017775172516228826,0.0018704199210029357,-1.1743275609315611e-10,-1.2900839847273293e-05,-0.00012289811723874438,9.807990723338278
29,900000000,7.620123546549076e-06,7.882984262246419e-07,7.413967676785447e-08,0.9999999999706535,0.00966175582346056,-0.001721259367550385,1.4332514604302017e-08,-1.7199804956503382e-05,0.00015426150337254476,10.34498068182908
29,910000000,-6.37409752698209e-06,6.5939580015204e-07,7.418469114319462e-08,0.9999999999794653,-0.01777517251621372,0.001870419921001375,-1.1743275591973617e-10,-1.1607983121291565e-05,-0.00011646733634263185,9.35410671318262
29,920000000,7.620123546513604e-06,7.88298426598881e-07,7.418892129292565e-08,0.9999999999706535,0.009661755823515904,-0.0017212593675733647,1.4332514604197666e-08,-1.7199804956498276e-05,0.00015426150337263206,10.344980681831373
29,930000000,-6.374097526984579e-06,6.593957998396293e-07,7.423393566826595e-08,0.9999999999794653,-0.010213270566732574,-0.0021282230085568456,1.8502244878636156e-09,-1.3160586211796735e-05,-0.00012201389853709503,9.86505231062328
29,940000000,7.620123546498453e-06,7.882984269881808e-07,7.42381658179971e-08,0.9999999999706535,0.018326686595716814,0.0019790609501591956,2.322005140764061e-10,-1.3808662560274808e-05,0.00013897866012614108,9.287703953315237
29,950000000,-6.374097527086947e-06,6.593957995294708e-07,7.428318019333726e-08,0.9999999999794653,-0.017775172516230137,0.001870419920979145,-1.1743275582693656e-10,-1.2900839847263976e-05,-0.00012289811723926653,9.807990723338195
29,960000000,7.620123546464144e-06,7.882984273544578e-07,7.428741034306663e-08,0.9999999999706535,0.018326686595715323,0.0019790609501351124,2.32200513660792e-10,-1.547190515008634e-05,0.00014709658140536956,9.792009274766444
29,970000000,-6.3740975270876625e-06,6.593957992251988e-07,7.433242471840707e-08,0.9999999999794653,-0.01777517251620929,0.0018704199210248377,-1.1743275652385293e-10,-1.2900839847428319e-05,-0.0001228981172386439,9.807990723338717
29,980000000,7.620123546400834e-06,7.882984277327346e-07,7.433665486813622e-08,0.9999999999706535,0.01832668659573303,0.0019790609501369495,2.3220051387026836e-10,-1.547190515016035e-05,0.00014709658140485836,9.79200927476734
29,990000000,-6.374097527099719e-06,6.593957989003844e-07,7.438166924347756e-08,0.9999999999794653,-0.01021327056680165,-0.0021282230085747983,1.8502244880203002e-09,-1.4769605139556793e-05,-0.0001297754953322728,10.426139610514793
30,0,7.6201235463593814e-06,7.882984281023141e-07,7.438589939320608e-08,0.9999999999706535,0.01832668659572616,0.001979060950136242,2.3220051367622784e-10,-1.3808662560046133e-05,0.00013897866012567114,9.287703953314805
30,10000000,-6.374097527185658e-06,6.593957985922527e-07,7.443091376854722e-08,0.9999999999794653,-0.017775172516231598,0.00187041992100322,-1.1743275608783292e-10,-1.2900839847337424e-05,-0.00012289811723923912,9.807990723337547
30,20000000,7.620123546339574e-06,7.88298428486918e-07,7.443514391827516e-08,0.9999999999706535,0.018326686595721644,0.0019790609501357742,2.3220051394765015e-10,-1.54719051502256e-05,0.00014709658140518817,9.792009274766757
30,30000000,-6.374097527216917e-06,6.593957982860267e-07,7.448015829361635e-08,0.9999999999794653,-0.017775172516246905,0.0018704199210048055,-1.1743275635951554e-10,-1.2900839847485637e-05,-0.0001228981172392373,9.807990723337257
30,40000000,7.62012354622673e-06,7.88298428848369e-07,7.448438844334244e-08,0.9999999999706535,0.0183266865957092,0.0019790609501344806,2.3220051373479448e-10,-1.5471905149953767e-05,0.00014709658140373388,9.792009274768551
30,50000000,-6.3740975272571386e-06,6.593957979722677e-07,7.452940281868346e-08,0.9999999999794653,-0.017775172516260387,0.0018704199210062015,-1.1743275633059242e-10,-1.290083984749129e-05,-0.00012289811723934464,9.807990723336875
30,60000000,7.620123546238625e-06,7.882984292301756e-07,7.453363296840897e-08,0.9999999999706535,-0.017775172516225176,0.0018704199200085833,-5.7050068469042165e-08,-1.545063808059569e-05,0.00014935442265351278,9.799999998850605
30,70000000,-6.374097527304467e-06,6.59395797651366e-07,7.457864734375064e-08,0.9999999999794653,-0.017775172516236497,0.0018704199209798019,-1.1743275590204513e-10,-1.2924166951056355e-05,-0.00012493231056873836,9.799999999194016
30,80000000,7.62012354623973e-06,7.882984296039965e-07,7.458287749347513e-08,0.9999999999706535,0.01832668659574356,0.001979060950114108,2.3220051349909185e-10,-1.5471905150053737e-05,0.0001470965814055524,9.792009274767896
30,90000000,-6.37409752726025e-06,6.593957973334298e-07,7.462789186881748e-08,0.9999999999794653,-0.017775172516197014,0.0018704199209996397,-1.1743275616059884e-10,-1.2900839847264404e-05,-0.00012289811723817243,9.807990723337925
30,100000000,7.620123546192256e-06,7.882984299842447e-07,7.463212201854257e-08,0.9999999999706535,0.009661755823503022,-0.0017212593675750359,1.4332514603532724e-08,-1.7199804956662797e-05,0.00015426150337320292,10.344980681830537
30,110000000,-6.3740975272935305e-06,6.593957970115302e-07,7.467713639388511e-08,0.9999999999794653,-0.017775172516212363,0.001870419920977307,-1.1743275574752976e-10,-1.1607983121257921e-05,-0.00011646733634234896,9.354106713182636
30,120000000,7.620123546114546e-06,7.882984303584722e-07,7.468136654360929e-08,0.9999999999706535,0.009661755823501818,-0.0017212593675751827,1.4332514603279686e-08,-1.7199804956637525e-05,0.0001542615033723781,10.344980681831151
30,130000000,-6.374097527396256e-06,6.593957967130073e-07,7.472638091895083e-08,0.9999999999794653,-0.01777517251624202,0.0018704199210042996,-1.1743275614733593e-10,-1.1607983121536981e-05,-0.00011646733634365754,9.354106713180615
30,140000000,7.620123546092479e-06,7.882984307362536e-07,7.47306110686739e-08,0.9999999999706535,0.018326686595722442,0.00197906095015978,2.3220051401333196e-10,-1.5471905150173616e-05,0.00014709658140492303,9.79200927476721
30,150000000,-6.374097527351739e-06,6.593957963830094e-07,7.47756254440162e-08,0.9999999999794653,-0.01777517251617219,0.0018704199209970728,-1.1743275585846153e-10,-1.2900839847109321e-05,-0.00012289811723806038,9.807990723338746
30,160000000,7.620123545998297e-06,7.882984311036902e-07,7.477985559373921e-08,0.9999999999706535,0.01832668659569191,0.0019790609501566187,2.3220051394448182e-10,-1.5471905150018934e-05,0.00014709658140378331,9.792009274766635
30,170000000,-6.374097527427401e-06,6.593957960756748e-07,7.482486996908127e-08,0.9999999999794653,-0.01777517251623574,0.001870419920979726,-1.1743275580612085e-10,-1.2900839847247257e-05,-0.00012289811723886594,9.807990723337749
30,180000000,7.620123546010498e-06,7.882984314851424e-07,7.482910011880247e-08,0.9999999999706535,0.018326686595728583,0.0019790609501364903,2.3220051390223732e-10,-1.5471905150142157e-05,0.0001470965814047994,9.792009274766334
30,190000000,-6.374097527449152e-06,6.593957957630696e-07,7.487411449414537e-08,0.9999999999794653,-0.017775172516208984,0.001870419921000885,-1.174327560060919e-10,-1.2900839847256574e-05,-0.00012289811723869946,9.807990723337914
30,200000000,7.620123545898778e-06,7.882984318542342e-07,7.487834464386656e-08,0.9999999999706535,0.018326686595676798,0.001979060950155065,2.3220051403700923e-10,-1.5471905150020228e-05,0.00014709658140339208,9.792009274768086
30,210000000,-6.374097527495522e-06,6.593957954584144e-07,7.49233590192087e-08,0.9999999999794653,-0.017775172516252248,0.001870419920981429,-1.17432756158945e-10,-1.2900839847452386e-05,-0.00012289811723891403,9.80799072333659
30,220000000,7.620123545905789e-06,7.882984322328303e-07,7.492758916892874e-08,0.9999999999706535,0.018326686595711034,0.0019790609501586006,2.322005139839121e-10,-1.5471905150080025e-05,0.00014709658140427806,9.792009274767835
30,230000000,-6.374097527516976e-06,6.593957951325743e-07,7.49726035442713e-08,0.9999999999794653,-0.017775172516217703,0.001870419920977853,-1.174327557725939e-10,-1.2900839847219207e-05,-0.0001228981172387277,9.807990723337598
30,240000000,7.620123545896627e-06,7.88298432609071e-07,7.497683369399085e-08,0.9999999999706535,0.018326686595724492,0.001979060950136068,2.3220051383540296e-10,-1.547190515010543e-05,0.00014709658140485995,9.792009274766821
30,250000000,-6.374097527567562e-06,6.593957948264834e-07,7.502184806933387e-08,0.9999999999794653,-0.01777517251622572,0.0018704199210026135,-1.1743275609578334e-10,-1.2900839847356765e-05,-0.00012289811723910083,9.8079907233383
30,260000000,7.6201235458313665e-06,7.882984329795608e-07,7.502607821905215e-08,0.9999999999706535,0.018326686595698683,0.001979060950133392,2.322005137647827e-10,-1.5471905150020133e-05,0.0001470965814043417,9.792009274766313
30,270000000,-6.37409752759387e-06,6.593957945074687e-07,7.507109259439493e-08,0.9999999999794653,-0.017775172516223993,0.0018704199210024361,-1.1743275593289672e-10,-1.290083984725595e-05,-0.00012289811723899176,9.80799072333864
30,280000000,7.620123545787393e-06,7.882984333588695e-07,7.507532274411313e-08,0.9999999999706535,0.009661755823506682,-0.001721259367604707,1.4332514602520852e-08,-1.7199804956621994e-05,0.00015426150337205985,10.344980681832022
30,290000000,-6.374097527624138e-06,6.593957941987137e-07,7.512033711945616e-08,0.9999999999794653,-0.017775172516235116,0.0018704199209796544,-1.1743275600052378e-10,-1.1607983121475499e-05,-0.0001164673363430388,9.354106713180842
30,300000000,7.620123545770531e-06,7.882984337339995e-07,7.51245672691737e-08,0.9999999999706535,0.018326686595707506,0.00197906095015823,2.3220051392164e-10,-1.547190515008248e-05,0.00014709658140466938,9.792009274766249
30,310000000,-6.3740975276681384e-06,6.593957938851062e-07,7.516958164451724e-08,0.9999999999794653,-0.01777517251622506,0.0018704199210025445,-1.1743275608119715e-10,-1.2900839847369103e-05,-0.0001228981172391758,9.807990723338444
30,320000000,7.620123545765872e-06,7.88298434116352e-07,7.517381179423373e-08,0.9999999999706535,0.018326686595737225,0.0019790609501373836,2.3220051397850495e-10,-1.5471905150237147e-05,0.00014709658140534836,9.792009274766432
30,330000000,-6.374097527669872e-06,6.593957935585821e-07,7.52188261695785e-08,0.9999999999794653,-0.017775172516210323,0.0018704199209770953,-1.1743275562279035e-10,-1.2900839847121686e-05,-0.0001228981172385773,9.807990723338401
30,340000000,7.620123545666473e-06,7.882984344809334e-07,7.522305631929511e-08,0.9999999999706535,0.018326686595707,0.001979060950134257,2.3220051382715511e-10,-1.547190515001867e-05,0.00014709658140415292,9.792009274767663
30,350000000,-1.5432196515833924e-06,-2.0123281881220855e-07,7.525217002929282e-08,0.9999999999987863,-0.017775172516282106,0.0018704199204148154,1.2406684084781852e-08,3.981242173555609e-06,-2.8135707714899837e-05,9.807990724074669
30,360000000,7.620123545701379e-06,7.882984348625496e-07,7.527230084435376e-08,0.9999999999706533,0.01832668659573782,0.001979060950137444,2.3220051377403818e-10,-1.547190515015291e-05,0.00014709658140561329,9.792009274766414
30,370000000,-6.3740975276904484e-06,6.593957929290092e-07,7.531731521969947e-08,0.9999999999794653,-0.017775172516187623,0.0018704199209986765,-1.1743275583660026e-10,-1.2900839847076493e-05,-0.0001228981172376959,9.807990723339055
30,380000000,7.620123545641677e-06,7.882984352299332e-07,7.53215453694151e-08,0.9999999999706533,0.018326686595722484,0.0019790609501358597,2.3220051357104586e-10,-1.5471905150000428e-05,0.00014709658140517012,9.792009274766098
30,390000000,-6.374097527801265e-06,6.593957926293145e-07,7.536655974476043e-08,0.9999999999794653,-0.010213270566859396,-0.002128223008532296,1.8502244864909758e-09,-1.4769605139716967e-05,-0.00012977549533343933,10.426139610514946
30,400000000,7.620123545577916e-06,7.882984356089712e-07,7.537078989447407e-08,0.9999999999706533,0.018326686595712863,0.001979060950134859,2.322005138092932e-10,-1.3808662560059269e-05,0.00013897866012562514,9.287703953314713
30,410000000,-6.374097527757519e-06,6.593957923074598e-07,7.541580426981905e-08,0.9999999999794653,-0.017775172516191796,0.0018704199209991037,-1.1743275603880973e-10,-1.2900839847200685e-05,-0.00012289811723771037,9.807990723338627
30,420000000,7.620123545571158e-06,7.882984359864596e-07,7.542003441953322e-08,0.9999999999706533,0.018326686595732663,0.001979060950136913,2.322005137687576e-10,-1.5471905150118023e-05,0.00014709658140530735,9.79200927476601
30,430000000,-6.374097527807108e-06,6.593957919869631e-07,7.546504879487858e-08,0.9999999999794653,-0.01777517251620217,0.0018704199209762444,-1.1743275561681863e-10,-1.2900839847078911e-05,-0.00012289811723807727,9.807990723338454
30,440000000,7.620123545511095e-06,7.882984363607496e-07,7.546927894459186e-08,0.9999999999706533,0.009661755823504477,-0.0017212593676050058,1.4332514601789763e-08,-1.719980495660738e-05,0.00015426150337274037,10.344980681830503
30,450000000,-6.374097527861625e-06,6.593957916904579e-07,7.551429331993685e-08,0.9999999999794653,-0.01777517251621486,0.0018704199210014894,-1.174327562677139e-10,-1.1607983121524733e-05,-0.000116467336342639,9.354106713181997
30,460000000,7.620123545456381e-06,7.882984367378649e-07,7.551852346964931e-08,0.9999999999706533,0.018326686595710243,0.0019790609501345955,2.3220051395361653e-10,-1.5471905150132694e-05,0.00014709658140459086,9.792009274766675
30,470000000,-6.374097527907907e-06,6.593957913697831e-07,7.556353784499434e-08,0.9999999999794653,-0.017775172516224885,0.0018704199210025194,-1.1743275597223678e-10,-1.2900839847280986e-05,-0.00012289811723876264,9.807990723338106
30,480000000,7.62012354544037e-06,7.88298437116313e-07,7.556776799470568e-08,0.9999999999706533,0.01832668659573271,0.001979060950160849,2.3220051405905018e-10,-1.5471905150189313e-05,0.0001470965814050576,9.792009274766807
30,490000000,-6.374097527923258e-06,6.593957910558454e-07,7.561278237005089e-08,0.9999999999794653,-0.017775172516215392,0.0018704199210015442,-1.1743275602916183e-10,-1.2900839847286178e-05,-0.00012289811723844375,9.807990723338262
30,500000000,7.620123545365809e-06,7.882984374879873e-07,7.561701251976141e-08,0.9999999999706533,0.018326686595711416,0.0019790609501586422,2.3220051406894272e-10,-1.5471905150117515e-05,0.00014709658140434054,9.792009274766981
30,510000000,-6.374097527990976e-06,6.593957907463427e-07,7.566202689510668e-08,0.9999999999794653,-0.01777517251622471,0.0018704199210025135,-1.1743275604987448e-10,-1.2900839847374041e-05,-0.00012289811723911328,9.807990723337813
30,520000000,7.620123545380684e-06,7.882984378668514e-07,7.566625704481681e-08,0.9999999999706533,0.018326686595736125,0.0019790609501372704,2.3220051392048324e-10,-1.5471905150197475e-05,0.00014709658140541412,9.792009274767139
30,530000000,-6.374097528017045e-06,6.59395790434509e-07,7.57112714201639e-08,0.9999999999794653,-0.01777517251622604,0.0018704199210026464,-1.174327561426032e-10,-1.29008398474052e-05,-0.00012289811723900488,9.807990723337772
30,540000000,7.620123545289679e-06,7.882984382312187e-07,7.571550156987263e-08,0.9999999999706533,0.01832668659569902,0.001979060950133431,2.3220051372834847e-10,-1.5471905149982556e-05,0.0001470965814043774,9.792009274766313
30,550000000,-6.374097528005643e-06,6.593957901113005e-07,7.576051594521813e-08,0.9999999999794653,-0.01777517251619856,0.0018704199209998037,-1.174327559700965e-10,-1.2900839847223347e-05,-0.00012289811723814636,9.807990723338325
30,560000000,7.620123545272768e-06,7.882984386089384e-07,7.57647460949273e-08,0.9999999999706533,0.01832668659572602,0.001979060950136223,2.3220051373747842e-10,-1.547190515003165e-05,0.00014709658140481163,9.792009274767597
30,570000000,-6.374097528094575e-06,6.593957898029964e-07,7.580976047027341e-08,0.9999999999794653,-0.010213270566789927,-0.0021282230085452264,1.8502244847403712e-09,-1.476960513968948e-05,-0.00012977549533346746,10.426139610512223
30,580000000,7.620123545253035e-06,7.882984389935554e-07,7.581399061998202e-08,0.9999999999706533,0.0183266865957217,0.001979060950135776,2.3220051400908437e-10,-1.3808662560198931e-05,0.00013897866012617198,9.287703953316242
30,590000000,-6.374097528125512e-06,6.593957894967728e-07,7.585900499532819e-08,0.9999999999794653,-0.017775172516246877,0.0018704199210047999,-1.1743275622736798e-10,-1.2900839847481731e-05,-0.0001228981172392242,9.807990723337255
30,600000000,7.6201235451404316e-06,7.882984393550228e-07,7.586323514503494e-08,0.9999999999706533,0.018326686595709202,0.0019790609501344814,2.3220051379578367e-10,-1.5471905149944365e-05,0.00014709658140374537,9.792009274768551
30,610000000,-6.374097528121468e-06,6.593957891763244e-07,7.590824952038103e-08,0.9999999999794653,-0.017775172516216128,0.001870419921001619,-1.174327561280469e-10,-1.2900839847356778e-05,-0.00012289811723846956,9.807990723337523
30,620000000,7.620123545130875e-06,7.882984397322286e-07,7.591247967008741e-08,0.9999999999706533,0.018326686595717723,0.0019790609501353627,2.322005137551488e-10,-1.5471905149981583e-05,0.00014709658140429736,9.792009274767283
30,630000000,-6.374097528176664e-06,6.59395788851338e-07,7.595749404543493e-08,0.9999999999794653,-0.017775172516247127,0.0018704199209809,-1.1743275552228109e-10,-1.290083984714563e-05,-0.00012289811723890733,9.807990723336882
30,640000000,7.620123545092159e-06,7.882984401125214e-07,7.596172419514064e-08,0.9999999999706533,0.0183266865957112,0.001979060950158614,2.3220051401446779e-10,-1.5471905150067317e-05,0.0001470965814043171,9.79200927476776
30,650000000,-6.374097528220543e-06,6.593957885469046e-07,7.600673857048715e-08,0.9999999999794653,-0.017775172516224732,0.0018704199210025142,-1.1743275593230966e-10,-1.2900839847331349e-05,-0.00012289811723916562,9.807990723337811
30,660000000,7.620123545111143e-06,7.882984404853435e-07,7.601096872019176e-08,0.9999999999706533,0.018326686595742943,0.001979060950114045,2.322005135560753e-10,-1.547190515004189e-05,0.00014709658140545754,9.792009274766727
30,670000000,-6.374097528266245e-06,6.593957882287844e-07,7.605598309553973e-08,0.9999999999794653,-0.017775172516274713,0.001870419920959826,-1.1743275548815177e-10,-1.2900839847247096e-05,-0.00012289811723943428,9.807990723337543
30,680000000,7.62012354498455e-06,7.882984408492913e-07,7.606021324524292e-08,0.9999999999706533,0.018326686595706694,0.001979060950110304,2.3220051348841297e-10,-1.5471905149803127e-05,0.000147096581403721,9.792009274767919
30,690000000,-6.374097528296083e-06,6.593957879173988e-07,7.610522762058988e-08,0.9999999999794653,-0.01777517251623294,0.0018704199209794276,-1.1743275570235528e-10,-1.2900839847292278e-05,-0.00012289811723935424,9.807990723337241
30,700000000,7.620123544995791e-06,7.88298441232777e-07,7.61094577702928e-08,0.9999999999706533,0.018326686595720565,0.001979060950111735,2.322005135961065e-10,-1.547190514997282e-05,0.0001470965814047216,9.792009274766793
30,710000000,-6.374097528263132e-06,6.593957875959631e-07,7.615447214563973e-08,0.9999999999794653,-0.017775172516213102,0.0018704199209773793,-1.1743275567349185e-10,-1.2900839847141029e-05,-0.00012289811723809857,9.807990723339124
30,720000000,7.6201235449831935e-06,7.882984416168863e-07,7.615870229534317e-08,0.9999999999706533,0.01832668659573459,0.001979060950137115,2.3220051389479603e-10,-1.5471905150140785e-05,0.00014709658140520405,9.792009274765913
30,730000000,-6.3740975283398915e-06,6.593957872996009e-07,7.620371667069039e-08,0.9999999999794653,-0.01777517251622506,0.001870419921002544,-1.1743275624868515e-10,-1.2900839847485373e-05,-0.00012289811723899144,9.80799072333846
30,740000000,7.6201235449460206e-06,7.882984419939994e-07,7.620794682039326e-08,0.9999999999706533,0.009661755823488284,-0.001721259367546774,1.4332514600014521e-08,-1.719980495668774e-05,0.00015426150337309827,10.34498068183012
30,750000000,-6.3740975283184615e-06,6.593957869791738e-07,7.625296119574102e-08,0.9999999999794653,-0.01777517251617559,0.001870419921021354,-1.1743275633297175e-10,-1.1607983121479258e-05,-0.00011646733634207497,9.354106713183143
30,760000000,7.620123544849325e-06,7.882984423669308e-07,7.625719134544264e-08,0.9999999999706533,0.01832668659571144,0.001979060950134716,2.322005141026406e-10,-1.5471905150144454e-05,0.00014709658140408383,9.792009274765775
30,770000000,-6.374097528426624e-06,6.59395786658757e-07,7.630220572078972e-08,0.9999999999794653,-0.0177751725162327,0.0018704199209794061,-1.174327555741857e-10,-1.2900839847239339e-05,-0.0001228981172393921,9.807990723337698
30,780000000,7.620123544822646e-06,7.882984427459422e-07,7.630643587049065e-08,0.9999999999706533,0.018326686595711694,0.0019790609501586735,2.3220051427030966e-10,-1.5471905150194687e-05,0.0001470965814043738,9.792009274767542
30,790000000,-6.374097528429724e-06,6.593957863554618e-07,7.635145024583797e-08,0.9999999999794653,-0.017775172516219455,0.0018704199210258913,-1.1743275629517466e-10,-1.2900839847437848e-05,-0.0001228981172388079,9.807990723338206
30,800000000,7.620123544781437e-06,7.88298443116561e-07,7.635568039553808e-08,0.9999999999706533,0.018326686595711083,0.0019790609501586054,2.3220051411161123e-10,-1.5471905150120263e-05,0.00014709658140429975,9.792009274766734
30,810000000,-6.374097528415612e-06,6.593957860324822e-07,7.640069477088537e-08,0.9999999999794653,-0.017775172516172163,0.001870419920997078,-1.1743275602099758e-10,-1.290083984726829e-05,-0.00012289811723790087,9.807990723338577
30,820000000,7.620123544799776e-06,7.882984434955206e-07,7.640492492058642e-08,0.9999999999706533,0.018326686595738575,0.0019790609501375246,2.3220051395429598e-10,-1.5471905150193247e-05,0.00014709658140543122,9.792009274766333
30,830000000,-6.37409752844413e-06,6.593957857189057e-07,7.644993929593525e-08,0.9999999999794653,-0.017775172516197545,0.001870419920999696,-1.1743275604116435e-10,-1.290083984726341e-05,-0.00012289811723782167,9.807990723338225
30,840000000,7.620123544734618e-06,7.882984438595971e-07,7.645416944563402e-08,0.9999999999706533,0.018326686595720815,0.0019790609501117596,2.322005135749322e-10,-1.5471905149982945e-05,0.00014709658140489855,9.792009274766654
30,850000000,-6.374097528503003e-06,6.593957854060782e-07,7.649918382098289e-08,0.9999999999794653,-0.0177751725162047,0.0018704199210004397,-1.1743275597811835e-10,-1.2900839847278047e-05,-0.00012289811723833566,9.807990723338172
30,861000000,2.5134887810090434e-06,-2.7581356138627866e-07,7.652888993739597e-08,0.9999999999968003,-0.010213270566739005,-0.0021282230080045383,5.878286160463379e-08,4.81946065747436e-06,5.242953379360696e-05,10.305031750849176
30,871000000,-1.5432196513042586e-06,-2.0123282079203456e-07,7.653252768070731e-08,0.9999999999987863,0.009661755823470354,-0.0017212593674028032,-3.63336716682474e-08,4.068608425544016e-06,-3.379403703272671e-05,9.734947688554065
30,881000000,2.513488781039513e-06,-2.7581356126793884e-07,7.657813446244408e-08,0.9999999999968003,-0.010213270566681107,-0.0021282230080162117,5.8782861604046184e-08,5.2912054601532394e-06,5.3339107779019405e-05,9.865052311242355
30,891000000,-1.5432196512669358e-06,-2.012328208579621e-07,7.658177220575612e-08,0.9999999999987863,0.009661755823454212,-0.0017212593673747566,-3.6333671667660477e-08,4.068608425352228e-06,-3.3794037032160015e-05,9.734947688552499
30,901000000,-6.374097528611319e-06,6.593957845935917e-07,7.66272195861047e-08,0.9999999999794653,0.01832668659576504,0.0019790609488582064,5.0898355427770214e-08,-1.1341416830028207e-05,-0.00011684644576971049,9.246140733910577
30,911000000,-1.5432196513011136e-06,-2.0123282093869313e-07,7.663101673080193e-08,0.9999999999987863,-0.01777517251628224,0.0018704199203909018,1.2406684085189298e-08,3.981242173516976e-06,-2.8135707714828036e-05,9.80799072407492
30,921000000,-6.374097528611974e-06,6.593957842678515e-07,7.667646411115009e-08,0.9999999999794653,-0.01021327056679561,-0.0021282230085754696,1.850224483102389e-09,-1.4455277381267525e-05,-0.0001307441829469932,10.305031750145584
30,931000000,-1.543219651268158e-06,-2.0123282101440284e-07,7.668026125584833e-08,0.9999999999987863,0.009661755823483668,-0.0017212593674010843,-3.6333671668478624e-08,4.0686084254444245e-06,-3.3794037032600255e-05,9.734947688552884
30,941000000,2.5134887810719186e-06,-2.758135608907784e-07,7.672586803758353e-08,0.9999999999968001,-0.01021327056672609,-0.0021282230080059924,5.8782861604194825e-08,5.291205460029769e-06,5.3339107778867515e-05,9.865052311242625
30,951000000,-1.5432196512908772e-06,-2.012328210894524e-07,7.67295057808941e-08,0.9999999999987861,-0.017775172516310347,0.001870419920393811,1.2406684085209786e-08,4.753052710999215e-06,-2.9107531109914936e-05,9.182738970971412
30,961000000,2.513488781052531e-06,-2.7581356076429946e-07,7.677511256262821e-08,0.9999999999968001,-0.010213270566739277,-0.0021282230080045183,5.878286160397579e-08,4.819460657415036e-06,5.242953379308816e-05,10.305031750848837
30,971000000,-1.5432196512060807e-06,-2.012328211518709e-07,7.677875030593916e-08,0.9999999999987861,0.009661755823435517,-0.0017212593673470188,-3.633367166740572e-08,4.068608425174661e-06,-3.379403703173684e-05,9.734947688552577
30,981000000,2.5134887811012632e-06,-2.75813560641439e-07,7.682435708767404e-08,0.9999999999968001,-0.010213270566722304,-0.0021282230080064283,5.8782861603963995e-08,5.291205459973897e-06,5.333910777889009e-05,9.865052311244678
30,991000000,-1.5432196512413139e-06,-2.012328212379326e-07,7.682799483098483e-08,0.9999999999987861,0.009661755823477057,-0.0017212593673717727,-3.633367166833556e-08,4.068608425361484e-06,-3.379403703264706e-05,9.734947688554815
31,1000000,2.5134887810976472e-06,-2.758135605005175e-07,7.687360161271895e-08,0.9999999999968001,-0.010213270566740509,-0.0021282230079735127,5.87828616031473e-08,5.291205459650965e-06,5.3339107778560835e-05,9.865052311241634
31,11000000,-1.5432196512320397e-06,-2.012328213115961e-07,7.687723935602938e-08,0.9999999999987861,-0.01777517251625224,0.0018704199204117237,1.2406684084514403e-08,4.753052710896987e-06,-2.910753110938171e-05,9.182738970973269
31,21000000,2.513488781102039e-06,-2.7581356039242214e-07,7.692284613776288e-08,0.9999999999968001,-0.010213270566727677,-0.0021282230080057994,5.878286160364737e-08,4.819460657393271e-06,5.2429533793260863e-05,10.305031750847931
31,31000000,-1.54321965123582e-06,-2.0123282139104822e-07,7.692648388107223e-08,0.9999999999987861,0.009661755823496071,-0.0017212593673994665,-3.6333671669037123e-08,4.068608425375267e-06,-3.379403703293978e-05,9.734947688557003
31,41000000,2.5134887811659808e-06,-2.758135602736602e-07,7.697209066280566e-08,0.9999999999968001,-0.010213270566739463,-0.0021282230080044615,5.878286160382939e-08,5.291205460060308e-06,5.33391077793913e-05,9.865052311241918
31,51000000,-1.5432196512313884e-06,-2.0123282145547005e-07,7.697572840611591e-08,0.9999999999987861,0.009661755823507928,-0.001721259367367745,-3.633367166861254e-08,4.068608425160137e-06,-3.379403703305296e-05,9.734947688554621
31,61000000,2.5134887811419903e-06,-2.7581356013558226e-07,7.702133518784858e-08,0.9999999999968001,-0.010213270566740205,-0.0021282230079735613,5.878286160296171e-08,5.2912054597757135e-06,5.333910777863287e-05,9.86505231124
31,71000000,-1.5432196512269e-06,-2.0123282154180505e-07,7.702497293115792e-08,0.9999999999987861,0.009661755823482174,-0.001721259367401262,-3.633367166922265e-08,4.06860842534771e-06,-3.379403703314342e-05,9.734947688555598
31,81000000,2.513488781152025e-06,-2.758135600217262e-07,7.70705797128904e-08,0.9999999999968001,-0.01021327056672682,-0.002128223008005906,5.878286160337149e-08,5.291205459972015e-06,5.3339107778543975e-05,9.865052311239817
31,91000000,-1.543219651214712e-06,-2.0123282162309723e-07,7.707421745619974e-08,0.9999999999987861,0.009661755823485317,-0.0017212593674008553,-3.633367166943103e-08,4.068608425457521e-06,-3.379403703309396e-05,9.73494768855645
31,101000000,-6.374097528932123e-06,6.593957814418299e-07,7.71196648365369e-08,0.9999999999794651,-0.010213270566789643,-0.0021282230085452767,1.8502244822168748e-09,-1.3160586211770928e-05,-0.00012201389853810232,9.865052310622753
31,111000000,-1.543219651198416e-06,-2.0123282169950723e-07,7.712346198124127e-08,0.9999999999987861,0.009661755823495084,-0.001721259367399585,-3.6333671669551875e-08,4.068608425466587e-06,-3.379403703297268e-05,9.734947688556403
31,121000000,2.5134887811703735e-06,-2.7581355977044807e-07,7.716906876297308e-08,0.9999999999968001,-0.01021327056672663,-0.00212822300800593,5.878286160304728e-08,5.291205459896719e-06,5.33391077783672e-05,9.86505231123931
31,131000000,-1.5432196511494557e-06,-2.0123282176877727e-07,7.717270650628246e-08,0.9999999999987861,0.009661755823447103,-0.0017212593673756643,-3.633367166889801e-08,4.068608425347703e-06,-3.379403703216955e-05,9.734947688553223
31,141000000,2.51348878121513e-06,-2.758135596556587e-07,7.721831328801366e-08,0.9999999999968001,-0.010213270566666906,-0.002128223007986924,5.8782861602174426e-08,5.291205460075825e-06,5.333910777895958e-05,9.86505231124362
31,151000000,-1.5432196511430835e-06,-2.0123282184574514e-07,7.722195103132391e-08,0.9999999999987861,0.009661755823482554,-0.0017212593673710521,-3.633367166913704e-08,4.068608425352686e-06,-3.379403703224117e-05,9.734947688554268
31,161000000,-6.374097529014463e-06,6.593957805013938e-07,7.726739841165738e-08,0.9999999999794651,-0.01021327056678598,-0.0021282230085456783,1.850224481888952e-09,-1.3160586211810789e-05,-0.00012201389853785249,9.865052310625149
31,171000000,-1.5432196511583589e-06,-2.0123282192515374e-07,7.727119555636484e-08,0.9999999999987861,0.00966175582348472,-0.0017212593673707817,-3.633367166939641e-08,4.068608425432305e-06,-3.3794037032752186e-05,9.734947688554808
31,181000000,2.5134887812161776e-06,-2.758135594011954e-07,7.731680233809549e-08,0.9999999999968001,-0.010213270566725984,-0.0021282230080059937,5.878286160278275e-08,5.291205459926097e-06,5.333910777845632e-05,9.865052311240168
31,191000000,-1.5432196511675873e-06,-2.0123282200140163e-07,7.732044008140406e-08,0.9999999999987861,-0.01777517251628222,0.0018704199204148202,1.2406684084875314e-08,4.753052711020947e-06,-2.9107531109788887e-05,9.182738970973757
31,201000000,2.513488781237291e-06,-2.7581355927630006e-07,7.736604686313437e-08,0.9999999999968001,-0.010213270566733138,-0.0021282230080052113,5.878286160268418e-08,4.819460657341235e-06,5.242953379350299e-05,10.305031750848888
31,211000000,-1.5432196511483444e-06,-2.0123282208108943e-07,7.736968460644296e-08,0.9999999999987861,0.009661755823486166,-0.0017212593674007597,-3.633367167008596e-08,4.068608425502709e-06,-3.3794037032944814e-05,9.734947688555835
31,221000000,-6.374097529142551e-06,6.593957795718008e-07,7.741513198677276e-08,0.9999999999794651,-0.010213270566783039,-0.00212822300854604,1.8502244812358659e-09,-1.3160586212038084e-05,-0.00012201389853842224,9.865052310622167
31,231000000,7.620123544003932e-06,7.882984512320114e-07,7.741936213645798e-08,0.9999999999706533,0.009661755823479194,-0.001721259367578127,1.433251459779503e-08,-1.5197448127129484e-05,0.00014461529776970395,9.734947687526564
31,241000000,2.513488781256007e-06,-2.758135590361621e-07,7.74645359132116e-08,0.9999999999968001,-0.010213270566686476,-0.002128223008015644,5.87828616019583e-08,5.291205460052362e-06,5.33391077784101e-05,9.865052311243092
31,251000000,-1.5432196511357363e-06,-2.012328222325511e-07,7.746817365651985e-08,0.9999999999987861,0.009661755823483241,-0.0017212593674011173,-3.6333671670304146e-08,4.068608425487811e-06,-3.3794037033063914e-05,9.734947688556627
31,261000000,2.5134887813155676e-06,-2.758135589091621e-07,7.751378043824918e-08,0.9999999999968001,-0.010213270566750695,-0.0021282230080341036,5.878286160300222e-08,5.291205459983606e-06,5.33391077793741e-05,9.865052311243252
31,271000000,-1.5432196510921057e-06,-2.0123282229172111e-07,7.751741818155767e-08,0.9999999999987861,0.009661755823477945,-0.001721259367371661,-3.633367166959902e-08,4.0686084251861176e-06,-3.3794037032410716e-05,9.734947688551445
31,281000000,2.5134887812818964e-06,-2.758135587797468e-07,7.756302496328744e-08,0.9999999999968001,0.01832668659579943,0.0019790609491438776,-1.8558396406500803e-08,5.9527502174180744e-06,4.750530052320093e-05,9.24614073453066
31,291000000,-1.5432196511197892e-06,-2.0123282238837456e-07,7.756666270659494e-08,0.9999999999987861,0.00966175582347393,-0.0017212593674023394,-3.633367167057355e-08,3.4291846901560314e-06,-3.2484515226622125e-05,10.253157580686825
31,301000000,2.513488781284728e-06,-2.7581355865524936e-07,7.761226948832276e-08,0.9999999999968001,-0.010213270566678909,-0.002128223007985583,5.878286160101054e-08,5.291205459877526e-06,5.333910777815757e-05,9.86505231123867
31,311000000,-1.5432196510978782e-06,-2.0123282245526888e-07,7.761590723163064e-08,0.9999999999987861,-0.0177751725162788,0.0018704199204144737,1.240668408478539e-08,4.753052710972739e-06,-2.9107531109562523e-05,9.182738970974968
31,321000000,2.513488781377308e-06,-2.7581355854548913e-07,7.76615140133595e-08,0.9999999999968001,-0.010213270566756161,-0.0021282230080334904,5.878286160290867e-08,4.819460657572989e-06,5.242953379472917e-05,10.305031750851963
31,331000000,-1.5432196510501242e-06,-2.012328225284864e-07,7.766515175666818e-08,0.9999999999987861,0.009661755823453255,-0.0017212593673748698,-3.633367166997261e-08,4.06860842536094e-06,-3.3794037032156396e-05,9.734947688549795
31,342000000,-6.374097529280904e-06,6.593957776818721e-07,7.771059913699089e-08,0.9999999999794651,-0.017775172516170938,0.0018704199209969485,-1.1743275585832928e-10,-1.1607983121365893e-05,-0.00011646733634209421,9.354106713183729
31,352000000,7.620123543736911e-06,7.882984534640241e-07,7.771482928667278e-08,0.9999999999706533,0.018326686595720034,0.001979060950111676,2.322005135878223e-10,-1.5471905149940607e-05,0.00014709658140481756,9.792009274766274
31,362000000,-6.374097529403818e-06,6.593957773711025e-07,7.775984366202605e-08,0.9999999999794651,-0.017775172516236937,0.0018704199209798442,-1.1743275550731514e-10,-1.2900839847302265e-05,-0.0001228981172397119,9.807990723336683
31,372000000,2.513488781347793e-06,-2.75813558209886e-07,7.778954977845236e-08,0.9999999999968001,0.018326686595813806,0.0019790609491214415,-1.8558396406816604e-08,5.367676458841012e-06,4.708814986519143e-05,9.792009275770681
31,382000000,-1.543219651025738e-06,-2.0123282272713512e-07,7.779318752175854e-08,0.9999999999987861,-0.01777517251622961,0.0018704199204093845,1.240668408456952e-08,3.9812421734345e-06,-2.8135707713999482e-05,9.807990724075884
31,392000000,7.620123543609369e-06,7.882984542202014e-07,7.78133183367392e-08,0.9999999999706533,0.018326686595701008,0.001979060950133633,2.3220051407106674e-10,-1.5471905150042895e-05,0.00014709658140383243,9.792009274766878
31,402000000,-6.374097529433322e-06,6.593957767335358e-07,7.78583327120929e-08,0.9999999999794651,-0.017775172516248636,0.0018704199209810528,-1.1743275528255388e-10,-1.2900839847116572e-05,-0.0001228981172389657,9.807990723336616
31,412000000,7.62012354358993e-06,7.882984545896086e-07,7.78625628617716e-08,0.9999999999706533,0.01832668659571914,0.001979060950135515,2.3220051378410577e-10,-1.5471905149922457e-05,0.00014709658140423456,9.792009274768045
31,422000000,-6.374097529504351e-06,6.59395776425366e-07,7.79075772371241e-08,0.9999999999794651,-0.010213270566783415,-0.002128223008484249,1.850224480550931e-09,-1.4769605139596133e-05,-0.00012977549533416097,10.426139610510784
31,432000000,7.620123543555055e-06,7.882984549704722e-07,7.791180738680255e-08,0.9999999999706533,0.01832668659568874,0.0019790609501323638,2.3220051397483325e-10,-1.3808662560012006e-05,0.00013897866012549278,9.287703953317132
31,442000000,-6.374097529468879e-06,6.593957761128051e-07,7.795682176215567e-08,0.9999999999794651,-0.017775172516211326,0.0018704199210011231,-1.1743275575469394e-10,-1.2900839847247318e-05,-0.0001228981172384412,9.807990723338683
31,452000000,7.620123543562946e-06,7.882984553467297e-07,7.796105191183322e-08,0.9999999999706533,0.018326686595729832,0.001979060950112688,2.3220051376034986e-10,-1.547190515006778e-05,0.0001470965814052313,9.792009274766027
31,462000000,-6.3740975295133735e-06,6.593957757999871e-07,7.800606628718789e-08,0.9999999999794651,-0.01777517251621827,0.0018704199210018448,-1.1743275574427155e-10,-1.2900839847259873e-05,-0.00012289811723869437,9.8079907233388
31,472000000,7.620123543497213e-06,7.882984557235828e-07,7.801029643686497e-08,0.9999999999706533,0.01832668659572348,0.001979060950135959,2.3220051400015893e-10,-1.54719051500905e-05,0.00014709658140469925,9.792009274766533
31,482000000,-6.374097529593461e-06,6.593957754914311e-07,7.805531081221904e-08,0.9999999999794651,-0.017775172516236334,0.0018704199209797837,-1.1743275563211912e-10,-1.2900839847382404e-05,-0.00012289811723961925,9.807990723337127
31,492000000,7.620123543503567e-06,7.882984560938138e-07,7.805954096189476e-08,0.9999999999706533,0.018326686595743057,0.0019790609501140564,2.3220051356833382e-10,-1.5471905149991744e-05,0.00014709658140563941,9.7920092747679
31,502000000,-6.374097529587539e-06,6.593957751691766e-07,7.810455533724883e-08,0.9999999999794651,-0.01021327056679692,-0.002128223008513608,1.850224480149874e-09,-1.4769605139590054e-05,-0.00012977549533325648,10.426139610513948
31,512000000,7.620123543440541e-06,7.882984564748485e-07,7.810878548692483e-08,0.9999999999706533,0.009661755823472881,-0.0017212593675789303,1.4332514596056321e-08,-1.5197448126915511e-05,0.00014461529776934145,9.734947687526457
31,522000000,-6.374097529660695e-06,6.593957748629796e-07,7.815379986227827e-08,0.9999999999794651,-0.017775172516214053,0.0018704199209774793,-1.1743275558986696e-10,-1.1607983121489739e-05,-0.00011646733634374579,9.354106713182851
31,532000000,7.620123543364856e-06,7.882984568439132e-07,7.815803001195245e-08,0.999999999970653,0.00966175582351658,-0.0017212593676034402,1.4332514595755065e-08,-1.7199804956495823e-05,0.00015426150337219667,10.34498068183282
31,542000000,-1.5432196509459239e-06,-2.0123282332162466e-07,7.818714372201628e-08,0.9999999999987861,-0.017775172516255443,0.0018704199204120596,1.2406684084141747e-08,4.492847437495128e-06,-2.609024320552166e-05,9.35410671387592
31,552000000,7.620123543277755e-06,7.882984572150985e-07,7.820727453698356e-08,0.999999999970653,0.018326686595681804,0.0019790609501077177,2.3220051384046135e-10,-1.5471905149913048e-05,0.00014709658140338533,9.792009274766535
31,562000000,-6.3740975297032766e-06,6.593957742276182e-07,7.825228891233723e-08,0.9999999999794651,-0.010213270566790703,-0.0021282230085451718,1.8502244795562444e-09,-1.4769605139602358e-05,-0.00012977549533359865,10.426139610511838
31,572000000,7.6201235433425686e-06,7.882984575990362e-07,7.825651906201077e-08,0.999999999970653,0.018326686595725433,0.0019790609501122297,2.322005137554831e-10,-1.3808662560033024e-05,0.00013897866012660724,9.28770395331592
31,582000000,-6.374097529738663e-06,6.593957739226643e-07,7.830153343736691e-08,0.9999999999794651,-0.017775172516263083,0.001870419921006477,-1.1743275581787465e-10,-1.2900839847376953e-05,-0.00012289811723928436,9.80799072333808
31,592000000,2.5134887815172708e-06,-2.7581355685115097e-07,7.83312395537995e-08,0.9999999999968001,0.018326686595814174,0.0019790609491454054,-1.855839640665207e-08,5.3676764588915795e-06,4.708814986556114e-05,9.792009275769674
31,602000000,-1.543219650964168e-06,-2.012328235663078e-07,7.833487729710489e-08,0.9999999999987861,-0.017775172516283508,0.0018704199204149603,1.2406684084946962e-08,3.981242173489658e-06,-2.8135707714944734e-05,9.807990724075484
31,612000000,7.620123543244012e-06,7.882984583529402e-07,7.835500811206614e-08,0.999999999970653,0.009661755823497094,-0.0017212593675757911,1.4332514595471374e-08,-1.7199804956658935e-05,0.0001542615033728483,10.34498068183033
31,622000000,-6.374097529772442e-06,6.593957732872005e-07,7.840002248742143e-08,0.9999999999794651,-0.01777517251621635,0.0018704199210016436,-1.1743275565129562e-10,-1.1607983121358239e-05,-0.00011646733634274492,9.354106713182157
31,632000000,7.620123543148105e-06,7.882984587249077e-07,7.840425263709323e-08,0.999999999970653,0.01832668659568712,0.0019790609501561204,2.3220051422073088e-10,-1.547190515006898e-05,0.000147096581403937,9.792009274766656
31,642000000,-6.374097529830003e-06,6.59395772968537e-07,7.844926701244861e-08,0.9999999999794651,-0.01777517251623982,0.0018704199209562226,-1.1743275514475676e-10,-1.2900839847166994e-05,-0.00012289811723914567,9.807990723338003
31,652000000,7.6201235431754405e-06,7.882984591029413e-07,7.845349716211864e-08,0.999999999970653,0.01832668659573268,0.001979060950136917,2.322005139937025e-10,-1.5471905150115252e-05,0.00014709658140525,9.792009274766643
31,662000000,-6.374097529817131e-06,6.593957726546374e-07,7.84985115374755e-08,0.9999999999794651,-0.017775172516197753,0.001870419920999718,-1.1743275554739372e-10,-1.2900839847142213e-05,-0.00012289811723826594,9.807990723338136
31,672000000,7.620123543113933e-06,7.882984594800069e-07,7.850274168714652e-08,0.999999999970653,0.018326686595725453,0.0019790609501361633,2.3220051415227582e-10,-1.5471905150167412e-05,0.0001470965814048082,9.79200927476759
31,682000000,-6.374097529906635e-06,6.593957723500382e-07,7.854775606250208e-08,0.9999999999794651,-0.01021327056678987,-0.002128223008514396,1.8502244789422159e-09,-1.4769605139728382e-05,-0.00012977549533381799,10.426139610511886
31,692000000,7.6201235430182295e-06,7.882984598519216e-07,7.855198621217122e-08,0.999999999970653,0.01832668659568986,0.0019790609501564096,2.3220051432833565e-10,-1.3808662560042669e-05,0.00013897866012490097,9.287703953316585
31,702000000,-6.3740975298959384e-06,6.593957720362241e-07,7.859700058752578e-08,0.9999999999794651,-0.017775172516184164,0.0018704199210222475,-1.1743275593954038e-10,-1.2900839847329189e-05,-0.00012289811723852155,9.807990723339095
31,712000000,7.620123543024781e-06,7.882984602256692e-07,7.8601230737195e-08,0.999999999970653,0.018326686595709876,0.0019790609501345573,2.3220051402694038e-10,-1.5471905150077725e-05,0.00014709658140454876,9.79200927476592
31,722000000,-6.374097529944489e-06,6.59395771716966e-07,7.86462451125503e-08,0.9999999999794651,-0.01777517251620529,0.0018704199210005023,-1.1743275556558533e-10,-1.2900839847222934e-05,-0.00012289811723884315,9.807990723337692
31,732000000,7.620123542998372e-06,7.882984606044971e-07,7.865047526221916e-08,0.999999999970653,0.018326686595711527,0.0019790609501586483,2.3220051418347226e-10,-1.5471905150133904e-05,0.00014709658140483523,9.792009274766828
31,742000000,-6.374097530031139e-06,6.59395771410011e-07,7.86954896375754e-08,0.9999999999794651,0.018326686595755825,0.0019790609488811732,5.089835542881429e-08,-1.2924166950937065e-05,-0.0001249323105690211,9.799999999196432
31,752000000,7.620123542947838e-06,7.882984609712652e-07,7.869971978724183e-08,0.999999999970653,0.018326686595720808,0.001979060950135683,2.3220051384949426e-10,-1.5450638080399037e-05,0.0001493544226533739,9.79999999884965
31,762000000,-6.374097529948237e-06,6.593957710911319e-07,7.874473416259791e-08,0.9999999999794651,-0.0177751725161884,0.0018704199210226743,-1.1743275597291088e-10,-1.2900839847250376e-05,-0.00012289811723761735,9.80799072333841
31,772000000,7.6201235429530655e-06,7.882984613447723e-07,7.874896431226599e-08,0.999999999970653,0.018326686595736368,0.001979060950113364,2.3220051354208376e-10,-1.5471905149959506e-05,0.0001470965814054251,9.792009274765977
31,783000000,7.620123542923674e-06,7.88298461578907e-07,7.877851102728012e-08,0.999999999970653,0.009661755823475504,-0.0017212593675786072,1.4332514594653633e-08,-1.686244091589256e-05,0.00015542188983216784,10.253157579544585
31,793000000,2.5134887816480925e-06,-2.7581355562045064e-07,7.882368480406196e-08,0.9999999999968001,-0.010213270566742302,-0.002128223008004183,5.8782861599689284e-08,5.291205460031449e-06,5.333910777870917e-05,9.865052311243659
31,803000000,7.620123542853844e-06,7.882984619457646e-07,7.882775555230316e-08,0.999999999970653,0.00966175582346048,-0.0017212593675503987,1.4332514594141628e-08,-1.519744812673758e-05,0.00014461529776899534,9.734947687526754
31,813000000,2.513488781649457e-06,-2.7581355548400263e-07,7.887292932908543e-08,0.9999999999968001,-0.010213270566739588,-0.0021282230079736134,5.878286159894133e-08,5.291205459777369e-06,5.333910777845766e-05,9.865052311242792
31,823000000,-1.5432196508514382e-06,-2.0123282440576934e-07,7.887656707238925e-08,0.9999999999987861,0.00966175582348568,-0.0017212593674008052,-3.6333671673341646e-08,4.068608425509227e-06,-3.379403703299256e-05,9.734947688555536
31,833000000,2.513488781687969e-06,-2.7581355536749526e-07,7.892217385410782e-08,0.9999999999968001,-0.010213270566656829,-0.0021282230079880254,5.87828615983423e-08,5.291205459945898e-06,5.33391077789289e-05,9.86505231123985
31,844000000,7.620123542792031e-06,7.882984627103955e-07,7.892624460234634e-08,0.999999999970653,0.018326686595726983,0.001979060950136329,2.322005142482993e-10,-1.3808662560173019e-05,0.00013897866012624238,9.287703953316095
31,854000000,-6.374097530161524e-06,6.593957696412543e-07,7.897125897770354e-08,0.9999999999794651,-0.0177751725161949,0.0018704199209754948,-1.1743275526276085e-10,-1.2900839847150958e-05,-0.0001228981172389292,9.807990723338476
31,864000000,7.620123542742764e-06,7.882984630798594e-07,7.897548912736695e-08,0.999999999970653,0.018326686595704866,0.001979060950134035,2.3220051407856462e-10,-1.547190515010732e-05,0.0001470965814048439,9.792009274766079
31,874000000,-1.5432196508148989e-06,-2.0123282459720112e-07,7.90046028374472e-08,0.9999999999987861,-0.017775172516277686,0.0018704199203665027,1.240668408555776e-08,3.981242173420344e-06,-2.813570771468045e-05,9.807990724075466
31,884000000,7.620123542703535e-06,7.882984634521634e-07,7.902473365238727e-08,0.999999999970653,0.009661755823516117,-0.0017212593675733298,1.4332514593844892e-08,-1.719980495655822e-05,0.0001542615033726035,10.344980681832164
31,894000000,-6.374097530255541e-06,6.59395769032533e-07,7.906974802774466e-08,0.9999999999794651,-0.017775172516232462,0.0018704199210033137,-1.1743275594399715e-10,-1.1607983121622826e-05,-0.00011646733634349808,9.354106713180293
31,904000000,7.620123542676519e-06,7.882984638369862e-07,7.907397817740684e-08,0.999999999970653,0.018326686595722706,0.0019790609501358827,2.3220051428238427e-10,-1.5471905150245966e-05,0.0001470965814050942,9.792009274767445
31,914000000,-6.374097530247884e-06,6.593957686958489e-07,7.911899255276518e-08,0.9999999999794651,-0.01777517251621623,0.0018704199209777033,-1.1743275515796895e-10,-1.2900839847076465e-05,-0.00012289811723869719,9.807990723338103
31,924000000,7.6201235426525145e-06,7.882984642025152e-07,7.912322270242621e-08,0.999999999970653,0.01832668659573303,0.0019790609501369495,2.3220051386956774e-10,-1.5471905150047496e-05,0.00014709658140534768,9.792009274766675
31,934000000,-6.374097530288684e-06,6.593957683869472e-07,7.916823707778425e-08,0.9999999999794651,-0.017775172516233423,0.0018704199209794875,-1.174327553005452e-10,-1.2900839847175293e-05,-0.00012289811723885616,9.807990723338696
31,944000000,7.62012354254995e-06,7.882984645725129e-07,7.91724672274453e-08,0.999999999970653,0.01832668659570621,0.001979060950134172,2.3220051393191669e-10,-1.5471905149942782e-05,0.0001470965814040721,9.792009274766626
31,955000000,7.6201235425350006e-06,7.882984647930565e-07,7.920201394245562e-08,0.999999999970653,0.018326686595704966,0.0019790609501101177,2.3220051365687918e-10,-1.5450638080285362e-05,0.0001493544226530342,9.799999998850057
31,965000000,2.513488781766672e-06,-2.75813554555678e-07,7.924718771924586e-08,0.9999999999968001,-0.01021327056673337,-0.0021282230080051576,5.878286159874133e-08,4.73165546988326e-06,5.5550934514164235e-05,10.426139611182835
31,975000000,-1.5432196507541819e-06,-2.012328249665184e-07,7.925082546254833e-08,0.9999999999987861,0.00966175582346634,-0.001721259367373188,-3.633367167333673e-08,4.0686084252048836e-06,-3.379403703253091e-05,9.734947688553737
31,985000000,2.5134887817749322e-06,-2.758135544348472e-07,7.929643224426457e-08,0.9999999999968001,-0.010213270566738222,-0.0021282230080046107,5.878286159867971e-08,5.291205460075108e-06,5.333910777861743e-05,9.865052311242504
31,995000000,-1.5432196507646554e-06,-2.0123282505186098e-07,7.930006998756765e-08,0.9999999999987861,0.009661755823464808,-0.0017212593673733686,-3.6333671673682305e-08,4.068608425386999e-06,-3.379403703293578e-05,9.734947688555216
32,5000000,2.513488781780511e-06,-2.758135543144151e-07,7.934567676928269e-08,0.9999999999968001,-0.010213270566665449,-0.0021282230080179603,5.878286159791712e-08,5.291205460147982e-06,5.333910777841751e-05,9.865052311239333
32,15000000,-1.543219650748345e-06,-2.0123282512783401e-07,7.934931451258522e-08,0.9999999999987861,0.00966175582348024,-0.0017212593673713722,-3.6333671673811484e-08,4.0686084253797595e-06,-3.379403703278376e-05,9.734947688556757
32,25000000,2.513488781788079e-06,-2.7581355417376347e-07,7.93949212943012e-08,0.9999999999968001,-0.01021327056680319,-0.0021282230079921736,5.87828615988503e-08,5.2912054597996565e-06,5.333910777835967e-05,9.865052311241799
32,35000000,-1.5432196507554914e-06,-2.0123282520489813e-07,7.939855903760274e-08,0.9999999999987861,-0.01777517251628867,0.0018704199203915671,1.2406684085313205e-08,4.753052710996543e-06,-2.9107531109779505e-05,9.182738970971421
32,45000000,2.5134887818108913e-06,-2.758135540558025e-07,7.944416581931702e-08,0.9999999999968001,-0.010213270566657032,-0.002128223007988038,5.878286159714333e-08,4.8194606573861844e-06,5.242953379335925e-05,10.30503175084743
32,55000000,-1.5432196507322276e-06,-2.0123282527480005e-07,7.944780356261932e-08,0.9999999999987861,0.009661755823456504,-0.0017212593673744724,-3.633367167387392e-08,4.068608425277492e-06,-3.379403703284567e-05,9.734947688557272
32,65000000,2.5134887817940904e-06,-2.7581355392361103e-07,7.94934103443339e-08,0.9999999999968001,-0.010213270566745836,-0.0021282230079729216,5.878286159748318e-08,5.2912054597606905e-06,5.333910777789423e-05,9.865052311239873
32,75000000,-1.543219650711328e-06,-2.0123282535207085e-07,7.949704808763502e-08,0.9999999999987861,0.009661755823474885,-0.0017212593673720565,-3.633367167402076e-08,4.068608425309189e-06,-3.379403703265401e-05,9.734947688556174
32,85000000,2.5134887818264327e-06,-2.7581355380723865e-07,7.954265486934985e-08,0.9999999999968001,-0.010213270566734439,-0.002128223008005049,5.878286159791534e-08,5.291205459899035e-06,5.333910777827943e-05,9.865052311241293
32,95000000,-1.5432196507206269e-06,-2.012328254371074e-07,7.954629261265131e-08,0.9999999999987861,0.00966175582348541,-0.0017212593674008469,-3.6333671674757104e-08,4.06860842548498e-06,-3.379403703303563e-05,9.734947688555863
32,105000000,2.5134887818169984e-06,-2.758135536772293e-07,7.959189939436556e-08,0.9999999999967999,-0.01021327056672965,-0.0021282230079747444,5.878286159721624e-08,5.291205459791007e-06,5.333910777780808e-05,9.86505231123883
32,115000000,-1.5432196507157545e-06,-2.0123282550357582e-07,7.959553713766653e-08,0.9999999999987859,-0.01777517251628793,0.0018704199203914867,1.2406684085141873e-08,4.753052710887418e-06,-2.9107531109735304e-05,9.182738970974476
32,125000000,2.5134887818294143e-06,-2.7581355354741495e-07,7.964114391937969e-08,0.9999999999967999,-0.010213270566712684,-0.0021282230079766105,5.8782861596978256e-08,4.819460657103264e-06,5.242953379261484e-05,10.305031750846721
32,135000000,-1.5432196506824526e-06,-2.012328255843673e-07,7.96447816626806e-08,0.9999999999987859,0.009661755823463859,-0.0017212593673734957,-3.6333671674392866e-08,4.068608425397152e-06,-3.3794037032642925e-05,9.734947688557241
32,145000000,2.513488781892857e-06,-2.7581355343459673e-07,7.96903884443943e-08,0.9999999999967999,-0.010213270566738557,-0.002128223008004613,5.878286159767866e-08,5.291205459868893e-06,5.3339107778773426e-05,9.865052311242463
32,155000000,-1.5432196506804798e-06,-2.0123282566248862e-07,7.969402618769484e-08,0.9999999999987859,0.009661755823495372,-0.001721259367399539,-3.633367167501977e-08,4.068608425436837e-06,-3.37940370328282e-05,9.73494768855578
32,165000000,2.5134887819354035e-06,-2.758135533295193e-07,7.97396329694085e-08,0.9999999999967999,0.018326686595831154,0.001979060949123231,-1.855839640769956e-08,5.9527502178064365e-06,4.750530052424285e-05,9.2461407345282
32,175000000,-1.5432196506588491e-06,-2.0123282574157937e-07,7.974327071271005e-08,0.9999999999987859,0.009661755823445077,-0.0017212593673759683,-3.633367167463583e-08,3.4291846900500875e-06,-3.248451522617638e-05,10.253157580685105
32,185000000,2.5134887819070135e-06,-2.758135531839834e-07,7.978887749442248e-08,0.9999999999967999,-0.010213270566736269,-0.0021282230080048384,5.878286159734611e-08,5.291205459805723e-06,5.333910777851728e-05,9.865052311242922
32,195000000,-1.5432196506909212e-06,-2.0123282581550385e-07,7.979251523772322e-08,0.9999999999987859,-0.017775172516304054,0.0018704199203931613,1.2406684085507678e-08,4.753052711047427e-06,-2.9107531109996363e-05,9.182738970972448
32,205000000,2.5134887819275617e-06,-2.75813553065307e-07,7.983812201943497e-08,0.9999999999967999,0.018326686595822612,0.001979060949146272,-1.8558396406618656e-08,5.367676458937583e-06,4.708814986544923e-05,9.792009275768923
32,215000000,-1.543219650678258e-06,-2.0123282589457597e-07,7.984175976273557e-08,0.9999999999987859,0.009661755823498723,-0.0017212593673991074,-3.6333671675516244e-08,3.4291846900521953e-06,-3.2484515227000064e-05,10.25315758068807
32,225000000,-6.374097530712343e-06,6.593957638065252e-07,7.988720714300414e-08,0.9999999999794649,-0.010213270566739012,-0.002128223008556134,1.8502244754847339e-09,-1.3160586211919274e-05,-0.0001220138985373592,9.865052310622254
32,235000000,-1.5432196506018625e-06,-2.0123282594892393e-07,7.989100428774888e-08,0.9999999999987859,0.009661755823436457,-0.0017212593673469109,-3.6333671674086095e-08,4.068608425113251e-06,-3.379403703200339e-05,9.734947688551776
32,245000000,2.513488781947576e-06,-2.7581355281282383e-07,7.993661106946104e-08,0.9999999999967999,-0.010213270566735466,-0.0021282230080049455,5.878286159704368e-08,5.291205459797501e-06,5.3339107778495464e-05,9.865052311243804
32,255000000,-1.543219650573192e-06,-2.0123282603883425e-07,7.994024881276127e-08,0.9999999999987859,0.009661755823484127,-0.0017212593673708422,-3.6333671674895415e-08,4.068608425381303e-06,-3.3794037031664406e-05,9.73494768855282
32,265000000,2.5134887819627296e-06,-2.7581355270256227e-07,7.998585559447356e-08,0.9999999999967999,-0.010213270566662132,-0.0021282230080183263,5.878286159648252e-08,5.291205460079806e-06,5.333910777850801e-05,9.865052311242433
32,275000000,-1.543219650596078e-06,-2.0123282611416915e-07,7.998949333777383e-08,0.9999999999987859,-0.017775172516266598,0.0018704199204132058,1.240668408475152e-08,4.7530527109585085e-06,-2.9107531108913065e-05,9.182738970975338
32,285000000,2.513488781969029e-06,-2.75813552560037e-07,8.003510011948494e-08,0.9999999999967999,0.01832668659580969,0.001979060949144941,-1.8558396406170298e-08,5.367676458727202e-06,4.7088149865165064e-05,9.792009275768253
32,295000000,-1.5432196506408065e-06,-2.0123282619540724e-07,8.00387378627845e-08,0.9999999999987859,0.009661755823499572,-0.0017212593673990259,-3.6333671675893174e-08,3.4291846899874837e-06,-3.248451522704738e-05,10.253157580687887
32,305000000,2.5134887820062154e-06,-2.7581355243408755e-07,8.008434464449451e-08,0.9999999999967999,-0.01021327056674411,-0.0021282230079731554,5.8782861596296024e-08,5.291205459674312e-06,5.333910777886438e-05,9.865052311240214
32,315000000,-1.5432196506027603e-06,-2.0123282627603524e-07,8.008798238779451e-08,0.9999999999987859,0.009661755823496957,-0.0017212593673993518,-3.63336716759838e-08,4.0686084255478786e-06,-3.379403703284195e-05,9.73494768855544
32,325000000,2.5134887819899236e-06,-2.758135523207285e-07,8.013358916950487e-08,0.9999999999967999,0.018326686595808474,0.0019790609491687375,-1.8558396406124204e-08,5.952750217482274e-06,4.75053005232277e-05,9.246140734528515
32,335000000,-1.5432196505503197e-06,-2.0123282633888668e-07,8.013722691280415e-08,0.9999999999987859,0.009661755823469148,-0.001721259367372798,-3.633367167525676e-08,3.429184689815151e-06,-3.2484515225561884e-05,10.253157580683926
32,345000000,2.5134887819922428e-06,-2.7581355220016426e-07,8.018283369451404e-08,0.9999999999967999,-0.010213270566739898,-0.002128223008004465,5.878286159654415e-08,5.29120545992569e-06,5.333910777802352e-05,9.865052311242518
32,355000000,-1.5432196505911373e-06,-2.0123282642831461e-07,8.018647143781303e-08,0.9999999999987859,0.009661755823485649,-0.0017212593674008083,-3.633367167619867e-08,4.068608425560835e-06,-3.37940370329861e-05,9.734947688556632
32,365000000,2.513488782069449e-06,-2.7581355207748763e-07,8.023207821952266e-08,0.9999999999967999,-0.01021327056674242,-0.002128223008035016,5.878286159706574e-08,5.291205459947833e-06,5.33391077793089e-05,9.865052311242716
32,375000000,-1.5432196505559092e-06,-2.012328264989199e-07,8.023571596282231e-08,0.9999999999987859,0.009661755823467216,-0.0017212593673730636,-3.6333671675701096e-08,4.068608425474246e-06,-3.3794037032484394e-05,9.734947688552172
32,385000000,2.513488782020553e-06,-2.7581355194233453e-07,8.028132274453139e-08,0.9999999999967999,-0.010213270566720384,-0.0021282230079757575,5.878286159569424e-08,5.291205459729378e-06,5.3339107778029664e-05,9.865052311240396
32,395000000,-1.5432196505637036e-06,-2.0123282656044508e-07,8.02849604878307e-08,0.9999999999987859,0.009661755823514646,-0.0017212593673668574,-3.633367167572804e-08,4.068608425175269e-06,-3.379403703283945e-05,9.734947688558014
32,405000000,-6.374097531062947e-06,6.593957609894447e-07,8.033040786808865e-08,0.9999999999794649,0.01832668659577394,0.001979060948883041,5.089835542879195e-08,-1.1341416830009343e-05,-0.00011684644576970813,9.24614073390634
32,415000000,-1.5432196505480378e-06,-2.012328266486716e-07,8.033420501283778e-08,0.9999999999987859,-0.0177751725162811,0.001870419920414712,1.2406684084963026e-08,3.981242173417613e-06,-2.813570771468784e-05,9.80799072407576
32,425000000,2.513488782080589e-06,-2.7581355170738855e-07,8.037981179454647e-08,0.9999999999967999,-0.010213270566733048,-0.0021282230080052126,5.87828615962412e-08,4.819460657418222e-06,5.242953379357993e-05,10.305031750849505
32,435000000,-1.5432196505324498e-06,-2.0123282671278883e-07,8.038344953784619e-08,0.9999999999987859,0.009661755823470114,-0.0017212593673425272,-3.6333671675415156e-08,4.068608425203162e-06,-3.379403703259654e-05,9.734947688554072
32,445000000,2.5134887820975925e-06,-2.758135515783701e-07,8.042905631955435e-08,0.9999999999967999,-0.010213270566738574,-0.0021282230080045725,5.8782861596074856e-08,5.29120545985541e-06,5.33391077787599e-05,9.86505231124216
32,455000000,-1.5432196505141946e-06,-2.0123282679494997e-07,8.043269406285281e-08,0.9999999999987859,-0.017775172516263555,0.0018704199204128947,1.2406684084703748e-08,4.753052710914406e-06,-2.9107531109045077e-05,9.182738970972721
32,465000000,2.5134887820756908e-06,-2.7581355144537236e-07,8.047830084455987e-08,0.9999999999967999,-0.010213270566731764,-0.0021282230079744916,5.8782861595277493e-08,4.819460657123429e-06,5.242953379287521e-05,10.305031750847757
32,475000000,-1.5432196505035736e-06,-2.0123282686935324e-07,8.04819385878579e-08,0.9999999999987859,0.009661755823497476,-0.0017212593673691114,-3.6333671676128735e-08,4.068608425276041e-06,-3.379403703242279e-05,9.734947688556343
32,485000000,2.5134887820987385e-06,-2.7581355134210083e-07,8.052754536956543e-08,0.9999999999967999,-0.010213270566686713,-0.002128223008015581,5.878286159534239e-08,5.291205460091907e-06,5.3339107778225755e-05,9.865052311240188
32,495000000,7.6201235415009555e-06,7.882984749386632e-07,8.053161611775356e-08,0.999999999970653,0.01832668659575315,0.0019790609497740063,2.3220051981968396e-10,-1.287039083404076e-05,0.00013304965296729736,8.994963355868771
32,505000000,2.5134887821642074e-06,-2.758135512244091e-07,8.057678989457213e-08,0.9999999999967999,-0.010213270566740122,-0.0021282230080352754,5.8782861596531155e-08,4.9391305788378465e-06,5.361660995470412e-05,10.233481269243484
32,515000000,-1.5432196505088464e-06,-2.0123282702485917e-07,8.058042763787125e-08,0.9999999999987859,0.009661755823499034,-0.0017212593673689006,-3.633367167649409e-08,4.068608425361518e-06,-3.3794037032924804e-05,9.73494768855446
32,525000000,2.513488782144509e-06,-2.7581355107406286e-07,8.062603441957723e-08,0.9999999999967999,-0.010213270566721895,-0.0021282230079756113,5.878286159503951e-08,5.291205459686417e-06,5.3339107778603044e-05,9.865052311239438
32,535000000,-1.5432196504751506e-06,-2.0123282710889934e-07,8.062967216287494e-08,0.9999999999987859,0.009661755823480628,-0.0017212593674014876,-3.633367167698633e-08,4.068608425497131e-06,-3.379403703243651e-05,9.734947688555353
32,545000000,2.5134887821443445e-06,-2.758135509643849e-07,8.067527894458134e-08,0.9999999999967999,-0.010213270566709584,-0.0021282230080078082,5.878286159547505e-08,5.291205459965132e-06,5.333910777831597e-05,9.865052311240042
32,555000000,7.620123541390014e-06,7.882984760593007e-07,8.067934969276397e-08,0.999999999970653,0.018326686595720555,0.0019790609501356637,2.3220051405620561e-10,-1.3808662559942095e-05,0.00013897866012595376,9.287703953316573
32,565000000,2.5134887821482434e-06,-2.758135508307287e-07,8.072452346958438e-08,0.9999999999967999,-0.010213270566728246,-0.0021282230080057565,5.8782861595202644e-08,4.731655469598585e-06,5.555093451349188e-05,10.426139611182052
32,575000000,-1.543219650429769e-06,-2.0123282724149811e-07,8.07281612128828e-08,0.9999999999987859,0.009661755823448376,-0.001721259367345331,-3.633367167592459e-08,4.068608425147477e-06,-3.37940370319094e-05,9.73494768855362
32,585000000,2.513488782122784e-06,-2.758135506898703e-07,8.077376799458868e-08,0.9999999999967999,-0.01021327056671944,-0.0021282230079450242,5.878286159388131e-08,5.291205459426654e-06,5.333910777732004e-05,9.865052311240142
32,595000000,-1.5432196504703174e-06,-2.012328273256951e-07,8.077740573788572e-08,0.9999999999987859,0.009661755823498859,-0.001721259367368932,-3.633367167686239e-08,4.06860842528104e-06,-3.3794037032923733e-05,9.73494768855991
32,605000000,2.513488782213787e-06,-2.7581355059619154e-07,8.082301251959063e-08,0.9999999999967999,-0.010213270566673587,-0.002128223008017044,5.878286159472981e-08,5.291205460022023e-06,5.333910777887889e-05,9.865052311239701
32,615000000,-1.5432196504155364e-06,-2.0123282739589062e-07,8.082665026288942e-08,0.9999999999987859,0.009661755823436409,-0.0017212593673469184,-3.6333671676169e-08,4.068608425190278e-06,-3.379403703199273e-05,9.73494768855234
32,627000000,7.6201235412411535e-06,7.882984774078227e-07,8.085662998277142e-08,0.999999999970653,-0.010213270566776664,-0.0021282230078072018,5.8782857464734336e-08,-1.570382803413287e-05,0.00015409354753755534,9.865052310173443
32,637000000,2.513488782232835e-06,-2.758135503876548e-07,8.09018037595961e-08,0.9999999999967999,-0.01021327056680334,-0.0021282230079921736,5.8782861595696325e-08,5.405949573053547e-06,4.926437969424308e-05,9.799999999876208
32,647000000,-1.5432196504293701e-06,-2.0123282751653003e-07,8.090544150289396e-08,0.9999999999987859,-0.017775172516269394,0.0018704199203895791,1.2406684084856015e-08,4.75305271077604e-06,-2.9107531109229652e-05,9.182738970970966
32,657000000,2.5134887822474487e-06,-2.75813550283563e-07,8.095104828459795e-08,0.9999999999967999,-0.01021327056666698,-0.0021282230080177716,5.8782861594570075e-08,4.819460657667354e-06,5.2429533793705495e-05,10.305031750849205
32,667000000,-1.5432196503917788e-06,-2.0123282760763276e-07,8.09546860278962e-08,0.9999999999987859,-0.017775172516256866,0.001870419920412206,1.2406684084934986e-08,4.753052711050595e-06,-2.910753110865996e-05,9.18273897097326
