timestamp_sec,timestamp_nanosec,orientation_x,orientation_y,orientation_z,orientation_w,angular_velocity_x,angular_velocity_y,angular_velocity_z,linear_acceleration_x,linear_acceleration_y,linear_acceleration_z
0,167000000,-5.639070017786935e-06,-6.13809782908724e-06,7.238856523659435e-10,0.9999999999652625,-0.006215655826985661,0.009662281613324122,1.259240771542391e-07,0.00012054557684959446,-0.00011046623236922969,9.803484127815395
0,177000000,-9.148237119742626e-06,-8.17558512669721e-06,1.2150339289159252e-09,0.9999999999247348,-0.005405894989530155,0.008041668650730267,2.5395895526590614e-07,0.00014743847047636648,-0.00016082380422288286,8.898379921394762
0,187000000,-5.135726395826355e-06,-5.312879238870885e-07,9.871135306096978e-10,0.9999999999866711,-0.012350230091837963,-0.0011118319399311515,-3.4053398659362945e-10,5.922340892521697e-06,-0.00011074835920348134,10.46567542584912
0,197000000,7.539109537228832e-06,-2.4072401449235326e-07,1.1145715176025193e-09,0.9999999999715521,0.015556116866114179,-0.0023124407170496577,7.883031328699867e-08,5.1877018591269605e-06,0.00014681928673444377,9.835814069638417
0,207000000,-3.671739094692263e-06,2.236957596091113e-06,1.140206478979575e-09,0.9999999999907572,-0.011161100629316594,0.005491545166516672,3.168654134780215e-08,-4.424368022950205e-05,-6.935072833706615e-05,9.742286672368204
0,217000000,-2.661710494007227e-06,-6.732230766995995e-06,1.1712331962966643e-09,0.9999999999737963,-0.0009745205450013283,-0.017813519616976012,-4.6324376728161123e-08,0.00013247659320231292,-5.4152311932782616e-05,9.921522685156603
0,227000000,-1.6694166074383587e-06,-2.1769326348889894e-07,1.1786126586841035e-09,0.9999999999985829,0.009993368773868532,-0.0018145980383830692,-3.974827826904177e-08,5.01199225275554e-06,-3.5431222129780925e-05,10.12162965461299
0,237000000,2.520596917215516e-06,-2.7660002741441025e-07,1.224117496041576e-09,0.999999999996785,-0.010227138277305422,-0.0021327011105806686,5.900832954213665e-08,5.356742966578537e-06,5.357059784809909e-05,9.853500061618345
0,247000000,-1.5434342233862018e-06,-2.0126069040540106e-07,1.227802300735055e-09,0.9999999999987887,0.009661888697883883,-0.0017213734763051674,-3.6336885824495375e-08,4.071844913461917e-06,-3.380297218648121e-05,9.734345248555288
0,257000000,2.5134862564568733e-06,-2.758134736631371e-07,1.273406108845964e-09,0.9999999999968032,-0.010213256040889246,-0.0021282204333584074,5.878270550114007e-08,5.291246471254245e-06,5.333907987739972e-05,9.86503757848185
0,267000000,-1.5432191569246808e-06,-2.0123263818998692e-07,1.277043900290794e-09,0.9999999999987892,0.009661754855920903,-0.0017212590289396724,-3.633366014959667e-08,4.068605292130927e-06,-3.379402219868954e-05,9.734948003428151
0,277000000,2.5134887386880476e-06,-2.7581374801951037e-07,1.3226506856914606e-09,0.9999999999968032,-0.010213270535722177,-0.002128222995527354,5.878286117309225e-08,5.291205250416649e-06,5.3339107103921556e-05,9.865052353222804
0,287000000,-1.5432196662816688e-06,-2.012327047000849e-07,1.3262884290259196e-09,0.9999999999987892,0.009661755824144767,-0.0017212593673751975,-3.633367150757135e-08,4.068608416375565e-06,-3.3794037022782506e-05,9.73494769026604
0,297000000,2.51348876032004e-06,-2.7581375029157333e-07,1.3718952113133167e-09,0.9999999999968032,-0.010213270566841943,-0.002128223008018765,5.878286177034903e-08,5.291205461442151e-06,5.333910778352594e-05,9.865052311244584
0,307000000,-1.5432196664287705e-06,-2.0123270480049463e-07,1.3755329548649135e-09,0.9999999999987892,0.009661755823485857,-0.0017212593673706358,-3.6333671505666186e-08,4.068608424017463e-06,-3.379403703657724e-05,9.734947688551225
0,317000000,2.5134887603044106e-06,-2.758137501662802e-07,1.4211397371453393e-09,0.9999999999968032,-0.01021327056673855,-0.00212822300800461,5.878286176895362e-08,5.291205461382347e-06,5.333910778271855e-05,9.865052311241389
0,327000000,-1.5432196664398183e-06,-2.0123270487956536e-07,1.4247774806962287e-09,0.9999999999987892,0.009661755823484648,-0.0017212593674009481,-3.6333671506263e-08,4.068608424053089e-06,-3.379403703694836e-05,9.734947688555241
0,337000000,2.513488760317536e-06,-2.7581375005223486e-07,1.470384262975564e-09,0.9999999999968032,-0.010213270566684021,-0.0021282230080159046,5.878286176837293e-08,5.291205461587361e-06,5.333910778269506e-05,9.86505231124113
0,347000000,-1.54321966644554e-06,-2.0123270495418102e-07,1.4740220065275588e-09,0.9999999999987892,0.009661755823493434,-0.0017212593673998045,-3.633367150641835e-08,4.068608424020918e-06,-3.379403703725401e-05,9.734947688557138
0,357000000,2.513488760290682e-06,-2.758137499132214e-07,1.5196287888063106e-09,0.9999999999968032,-0.010213270566723933,-0.002128223007975356,5.87828617680802e-08,5.2912054612877876e-06,5.3339107781885134e-05,9.865052311236946
0,367000000,-1.5432196663875852e-06,-2.0123270501667999e-07,1.5232665323570215e-09,0.9999999999987892,0.009661755823456212,-0.001721259367344323,-3.6333671505273646e-08,4.0686084237770876e-06,-3.379403703628163e-05,9.734947688555131
0,377000000,2.5134887603389432e-06,-2.758137497877091e-07,1.5688733146368751e-09,0.9999999999968032,-0.010213270566738679,-0.002128223008004602,5.878286176848464e-08,5.291205461224992e-06,5.333910778258449e-05,9.865052311243346
0,387000000,-1.543219666374635e-06,-2.0123270509872296e-07,1.5725110581876408e-09,0.9999999999987892,0.009661755823492667,-0.0017212593673697435,-3.6333671505953165e-08,4.068608423894631e-06,-3.379403703624574e-05,9.734947688554133
0,397000000,2.5134887603476296e-06,-2.758137496644005e-07,1.6181178404666902e-09,0.9999999999968032,-0.010213270566753046,-0.0021282230080029705,5.878286176840061e-08,5.291205461243051e-06,5.333910778249823e-05,9.865052311242664
0,407000000,-1.5432196663750423e-06,-2.0123270517477318e-07,1.6217555840171958e-09,0.9999999999987892,-0.017775172516252342,0.0018704199204117359,1.2406684077811118e-08,4.753052709337459e-06,-2.910753111507282e-05,9.182738970972364
0,417000000,2.5134887603967117e-06,-2.758137495472765e-07,1.6673623662968668e-09,0.9999999999968032,-0.010213270566802707,-0.002128223008023089,5.878286176953087e-08,4.819460658668591e-06,5.242953379902832e-05,10.30503175085103
0,427000000,-1.5432196663858073e-06,-2.012327052539933e-07,1.671000109846637e-09,0.9999999999987892,0.009661755823494553,-0.0017212593673996814,-3.633367150670223e-08,4.068608423963953e-06,-3.379403703687747e-05,9.734947688553612
0,437000000,2.5134887604144334e-06,-2.7581374942610736e-07,1.7166068921248662e-09,0.9999999999968032,-0.010213270566743931,-0.002128223008034835,5.878286176885205e-08,5.291205461426375e-06,5.3339107783285646e-05,9.865052311242124
0,447000000,-1.54321966635764e-06,-2.0123270533316326e-07,1.7202446356751817e-09,0.9999999999987892,0.009661755823467181,-0.0017212593673730469,-3.633367150636552e-08,4.068608424030127e-06,-3.379403703648229e-05,9.734947688552195
0,457000000,2.5134887603954556e-06,-2.7581374930197066e-07,1.7658514179525425e-09,0.9999999999968032,-0.010213270566679141,-0.0021282230079855565,5.878286176718331e-08,5.291205461429402e-06,5.333910778259758e-05,9.865052311241648
0,467000000,-1.5432196663507274e-06,-2.012327054022747e-07,1.7694891615029721e-09,0.9999999999987892,0.00966175582348503,-0.0017212593673707301,-3.633367150640018e-08,4.068608423875413e-06,-3.379403703653067e-05,9.734947688555796
0,477000000,2.513488760382446e-06,-2.7581374916541243e-07,1.8150959437808842e-09,0.9999999999968032,-0.010213270566720384,-0.002128223007975765,5.878286176736412e-08,5.291205461172061e-06,5.3339107782069306e-05,9.86505231123926
0,487000000,-1.5432196663422994e-06,-2.0123270548955127e-07,1.818733687330177e-09,0.9999999999987892,0.009661755823471584,-0.001721259367402668,-3.633367150705285e-08,4.068608424092649e-06,-3.379403703655481e-05,9.734947688556158
0,497000000,2.5134887604517375e-06,-2.7581374904468006e-07,1.86434046960742e-09,0.9999999999968032,-0.010213270566730744,-0.002128223008005449,5.878286176791129e-08,5.291205461230567e-06,5.3339107783204825e-05,9.86505231124377
0,507000000,-1.5432196663078523e-06,-2.0123270554490487e-07,1.8679782131583763e-09,0.9999999999987892,0.009661755823465333,-0.0017212593673431276,-3.633367150593728e-08,4.06860842371861e-06,-3.379403703607742e-05,9.734947688552026
0,517000000,2.5134887604182035e-06,-2.758137489225776e-07,1.9135849954356325e-09,0.9999999999968032,-0.010213270566754239,-0.0021282230080028586,5.8782861767733574e-08,5.291205461245318e-06,5.333910778225594e-05,9.865052311242557
0,527000000,-1.5432196663377737e-06,-2.0123270564245268e-07,1.9172227389843127e-09,0.9999999999987892,0.009661755823484323,-0.0017212593674009948,-3.633367150737009e-08,4.068608424120709e-06,-3.37940370368686e-05,9.734947688555472
0,537000000,2.513488760460008e-06,-2.758137488058141e-07,1.96282952126024e-09,0.9999999999968032,-0.010213270566656855,-0.0021282230079880484,5.8782861766729555e-08,5.291205461414843e-06,5.3339107782778564e-05,9.86505231123983
0,547000000,-1.5432196662824413e-06,-2.0123270570268403e-07,1.9664672648104254e-09,0.9999999999987892,0.00966175582345474,-0.0017212593673746857,-3.633367150657614e-08,4.068608423810206e-06,-3.3794037035928634e-05,9.734947688553826
0,557000000,2.5134887604361445e-06,-2.758137486667631e-07,2.01207404708635e-09,0.9999999999968032,-0.010213270566715638,-0.0021282230079762866,5.878286176685263e-08,5.2912054610962285e-06,5.333910778204332e-05,9.865052311241671
0,567000000,-1.5432196663152986e-06,-2.0123270579073808e-07,2.0157117906353733e-09,0.9999999999987892,-0.017775172516275774,0.0018704199204141602,1.2406684078220957e-08,4.753052709483079e-06,-2.9107531115386823e-05,9.182738970974798
0,577000000,2.513488760457749e-06,-2.758137485518313e-07,2.061318572911192e-09,0.9999999999968032,-0.010213270566726508,-0.002128223008005946,5.878286176734515e-08,4.819460658566697e-06,5.242953379797488e-05,10.305031750848256
0,587000000,-1.5432196662989186e-06,-2.0123270586058918e-07,2.064956316460061e-09,0.9999999999987892,0.009661755823482348,-0.0017212593673710903,-3.633367150710217e-08,4.068608423939434e-06,-3.3794037036674626e-05,9.734947688556186
0,597000000,2.5134887605228536e-06,-2.7581374843664995e-07,2.1105630987360274e-09,0.9999999999968032,-0.010213270566739511,-0.002128223008004469,5.878286176760504e-08,5.291205461431792e-06,5.33391077832554e-05,9.865052311242712
0,607000000,-1.5432196662941668e-06,-2.0123270593150818e-07,2.114200842285075e-09,0.9999999999987892,-0.017775172516267566,0.0018704199204133123,1.2406684077818709e-08,4.753052709289035e-06,-2.9107531115365596e-05,9.182738970971899
0,617000000,2.513488760485159e-06,-2.758137483119271e-07,2.1598076245591846e-09,0.9999999999968032,-0.010213270566651946,-0.0021282230079885628,5.87828617661984e-08,4.819460658734305e-06,5.2429533797938986e-05,10.3050317508463
0,627000000,-1.5432196663044565e-06,-2.012327060044319e-07,2.1634453681088938e-09,0.9999999999987892,0.009661755823472205,-0.0017212593673723985,-3.6333671507212604e-08,4.068608423768641e-06,-3.379403703714786e-05,9.734947688558362
0,637000000,2.513488760527481e-06,-2.7581374819361905e-07,2.2090521503830907e-09,0.9999999999968032,-0.010213270566728131,-0.002128223008005767,5.878286176735768e-08,5.291205461520644e-06,5.3339107782785876e-05,9.86505231124065
0,647000000,-1.5432196662563493e-06,-2.0123270608648175e-07,2.21268989393194e-09,0.9999999999987892,0.009661755823467061,-0.0017212593673730924,-3.633367150729388e-08,4.0686084239021435e-06,-3.379403703640159e-05,9.734947688553653
0,657000000,2.5134887605144527e-06,-2.758137480603384e-07,2.2582966762064964e-09,0.9999999999968032,-0.010213270566751987,-0.002128223008003127,5.878286176705815e-08,5.291205461329812e-06,5.33391077822593e-05,9.865052311242314
0,667000000,-1.5432196662609834e-06,-2.0123270616663224e-07,2.261934419754223e-09,0.9999999999987892,0.009661755823495882,-0.001721259367399495,-3.633367150797396e-08,4.0686084239745005e-06,-3.37940370367148e-05,9.73494768855597
0,677000000,2.5134887605671907e-06,-2.7581374793760016e-07,2.3075412020273627e-09,0.9999999999968032,-0.010213270566746794,-0.0021282230080036926,5.878286176709328e-08,5.291205461358986e-06,5.333910778305479e-05,9.865052311241806
0,687000000,-1.5432196663019612e-06,-2.0123270624093366e-07,2.3111789455756995e-09,0.9999999999987892,0.009661755823497313,-0.0017212593673993006,-3.6333671508220335e-08,4.068608423942738e-06,-3.3794037037722446e-05,9.734947688556566
0,697000000,2.513488760569264e-06,-2.758137478177362e-07,2.3567857278489382e-09,0.9999999999968032,-0.01021327056674363,-0.0021282230080349068,5.878286176736193e-08,5.29120546143013e-06,5.33391077828152e-05,9.865052311239394
0,707000000,-1.5432196662235556e-06,-2.0123270632127081e-07,2.3604234713971597e-09,0.9999999999987892,0.009661755823467275,-0.0017212593673730375,-3.633367150773257e-08,4.068608424044208e-06,-3.379403703634387e-05,9.734947688552882
0,717000000,2.513488760550572e-06,-2.7581374769278297e-07,2.406030253670086e-09,0.9999999999968032,-0.010213270566652168,-0.0021282230079885597,5.878286176564476e-08,5.291205461416496e-06,5.3339107782119634e-05,9.865052311239955
0,727000000,-1.5432196662497331e-06,-2.0123270639536407e-07,2.409667997219185e-09,0.9999999999987892,0.009661755823485638,-0.001721259367370665,-3.633367150797156e-08,4.068608423985863e-06,-3.379403703704208e-05,9.734947688558869
0,737000000,2.5134887605962532e-06,-2.758137475675518e-07,2.455274779490965e-09,0.9999999999968032,-0.010213270566656545,-0.002128223007988068,5.878286176564314e-08,5.291205461387783e-06,5.33391077827635e-05,9.865052311238768
0,747000000,7.620123603085787e-06,7.882978800093174e-07,2.4593455301228995e-09,0.9999999999706561,0.018326686595722504,0.0019790609501119357,2.3220050941283575e-10,-1.3808662561359408e-05,0.00013897866012181517,9.287703953315871
0,757000000,2.5134887605867114e-06,-2.7581374744050046e-07,2.5045193053119845e-09,0.9999999999968032,-0.010213270566746637,-0.0021282230080037134,5.8782861766501915e-08,4.731655471503737e-06,5.555093451962824e-05,10.426139611183677
0,767000000,-1.5432196662267362e-06,-2.0123270655487795e-07,2.5081570488587046e-09,0.9999999999987892,0.009661755823473244,-0.0017212593674024513,-3.633367150864644e-08,4.0686084241408975e-06,-3.379403703698892e-05,9.734947688555522
0,777000000,2.513488760628566e-06,-2.7581374733065415e-07,2.5537638311297244e-09,0.9999999999968032,-0.010213270566656366,-0.002128223008018963,5.8782861766009325e-08,5.291205461596936e-06,5.333910778286064e-05,9.865052311239975
0,787000000,-1.5432196662195457e-06,-2.0123270663417834e-07,2.557401574677426e-09,0.9999999999987892,0.009661755823469525,-0.001721259367402924,-3.633367150881382e-08,4.068608424198587e-06,-3.37940370370189e-05,9.734947688556387
0,797000000,2.513488760617258e-06,-2.7581374719232414e-07,2.6030083569481624e-09,0.9999999999968032,-0.010213270566652251,-0.002128223007988526,5.878286176515549e-08,5.2912054613162775e-06,5.3339107782358415e-05,9.865052311238992
0,807000000,7.620123602898111e-06,7.882978811355346e-07,2.6070791075754067e-09,0.9999999999706561,0.009661755823492546,-0.0017212593676065684,1.4332514758708541e-08,-1.519744812821141e-05,0.0001446152977644343,9.734947687530793
0,817000000,2.5134887606269353e-06,-2.758137470675635e-07,2.6522528827668218e-09,0.9999999999968032,-0.010213270566723123,-0.0021282230079754483,5.878286176569892e-08,5.291205461288325e-06,5.33391077823129e-05,9.865052311240108
0,827000000,-1.5432196661984699e-06,-2.0123270676680538e-07,2.655890626314049e-09,0.9999999999987892,0.009661755823484434,-0.0017212593673708052,-3.6333671508335267e-08,4.068608423831985e-06,-3.37940370370158e-05,9.734947688556405
0,837000000,2.5134887606356716e-06,-2.7581374695294564e-07,2.7014974085837994e-09,0.9999999999968032,-0.010213270566716932,-0.0021282230080070146,5.878286176610489e-08,5.291205461453952e-06,5.3339107782211086e-05,9.865052311239598
0,847000000,-1.543219666125055e-06,-2.0123270684690844e-07,2.705135152131155e-09,0.9999999999987892,0.009661755823438102,-0.0017212593673768548,-3.633367150817643e-08,4.068608423922451e-06,-3.379403703572656e-05,9.734947688552518
0,857000000,2.513488760693102e-06,-2.758137468189429e-07,2.7507419344026693e-09,0.9999999999968032,-0.01021327056673915,-0.002128223008004532,5.8782861766028926e-08,5.291205461246796e-06,5.3339107783090896e-05,9.865052311246249
0,867000000,-1.5432196661274758e-06,-2.0123270692474261e-07,2.7543796779503924e-09,0.9999999999987892,0.009661755823482655,-0.0017212593673710537,-3.633367150848501e-08,4.068608423959043e-06,-3.379403703600102e-05,9.7349476885522
0,877000000,2.513488760640083e-06,-2.758137466966124e-07,2.799986460221708e-09,0.9999999999968032,-0.010213270566721262,-0.002128223008006521,5.8782861765645624e-08,5.291205461278174e-06,5.3339107781741017e-05,9.865052311240204
0,887000000,-1.5432196661780894e-06,-2.0123270699842707e-07,2.8036242037679636e-09,0.9999999999987892,0.009661755823480184,-0.0017212593673713553,-3.633367150874023e-08,4.06860842391084e-06,-3.379403703718945e-05,9.734947688558918
0,897000000,2.5134887606943557e-06,-2.7581374658192023e-07,2.849230986037174e-09,0.9999999999968032,-0.010213270566736364,-0.002128223008004831,5.878286176588986e-08,5.291205461457083e-06,5.333910778256884e-05,9.865052311239952
0,907000000,-1.543219666149896e-06,-2.0123270707078094e-07,2.8528687295840152e-09,0.9999999999987892,0.009661755823500949,-0.001721259367368641,-3.633367150877577e-08,4.068608423840978e-06,-3.3794037036840766e-05,9.734947688556062
0,917000000,2.5134887607168013e-06,-2.7581374645763487e-07,2.898475511854024e-09,0.9999999999968032,-0.010213270566744405,-0.002128223008034808,5.87828617662e-08,5.291205461439672e-06,5.333910778275764e-05,9.865052311241122
0,927000000,-1.543219666125797e-06,-2.0123270714037497e-07,2.9021132554007613e-09,0.9999999999987892,0.009661755823465554,-0.0017212593673431003,-3.633367150824942e-08,4.068608423735718e-06,-3.379403703653658e-05,9.73494768855331
0,937000000,2.5134887606855263e-06,-2.758137463194259e-07,2.947720037669838e-09,0.9999999999968032,-0.01021327056672715,-0.0021282230079750068,5.878286176488769e-08,5.291205461156975e-06,5.333910778182749e-05,9.865052311239879
0,947000000,-1.5432196661030025e-06,-2.0123270723542858e-07,2.951357781215769e-09,0.9999999999987892,0.009661755823484275,-0.0017212593674009898,-3.633367150945804e-08,4.068608424075928e-06,-3.3794037036282e-05,9.734947688556074
0,957000000,2.513488760726315e-06,-2.7581374619841875e-07,2.9969645634846683e-09,0.9999999999968032,-0.01021327056674989,-0.0021282230080033626,5.878286176536746e-08,5.291205461220934e-06,5.333910778238964e-05,9.865052311242287
0,967000000,-1.5432196660811956e-06,-2.0123270729869993e-07,3.00060230703154e-09,0.9999999999987892,0.00966175582345745,-0.0017212593673441537,-3.633367150847428e-08,4.068608423855008e-06,-3.379403703603818e-05,9.73494768855311
0,977000000,2.51348876072307e-06,-2.7581374606826473e-07,3.0462090893001463e-09,0.9999999999968032,-0.010213270566724036,-0.002128223007975366,5.878286176462926e-08,5.2912054610838855e-06,5.333910778202916e-05,9.86505231124189
0,987000000,-1.5432196661165541e-06,-2.0123270738549084e-07,3.0498468328459392e-09,0.9999999999987892,-0.017775172516282127,0.0018704199204148128,1.2406684078310524e-08,4.7530527094837885e-06,-2.910753111547757e-05,9.182738970974057
0,997000000,2.5134887607848316e-06,-2.758137459520519e-07,3.095453615113511e-09,0.9999999999968032,-0.01021327056674672,-0.0021282230080036835,5.8782861765270183e-08,4.819460658538235e-06,5.242953379879496e-05,10.305031750850599
1,7000000,-1.5432196660742194e-06,-2.0123270745209474e-07,3.0990913586597637e-09,0.9999999999987892,0.009661755823467458,-0.0017212593673730343,-3.633367150915052e-08,4.068608423875248e-06,-3.3794037036292295e-05,9.734947688552527
1,17000000,2.513488760780012e-06,-2.758137458370783e-07,3.1446981409266918e-09,0.9999999999968032,-0.010213270566664184,-0.0021282230079872383,5.878286176416201e-08,5.2912054614202415e-06,5.333910778259926e-05,9.865052311241174
1,27000000,-1.5432196660734876e-06,-2.0123270753223517e-07,3.148335884472947e-09,0.9999999999987892,0.009661755823475528,-0.001721259367371982,-3.633367150938948e-08,4.068608423941163e-06,-3.3794037036455475e-05,9.734947688555716
1,37000000,2.5134887607716924e-06,-2.758137457027665e-07,3.1939426667396725e-09,0.9999999999968032,0.01832668659581214,0.001979060949145195,-1.855839641049494e-08,5.952750217199845e-06,4.750530052179143e-05,9.246140734530416
1,47000000,-1.5432196660400518e-06,-2.0123270760641514e-07,3.197580410284066e-09,0.9999999999987892,0.009661755823482719,-0.0017212593673710435,-3.633367150940382e-08,3.4291846900109486e-06,-3.248451522449565e-05,10.253157580684713
1,57000000,2.5134887607814697e-06,-2.758137455701491e-07,3.243187192552077e-09,0.9999999999968032,-0.010213270566796578,-0.0021282230079620714,5.8782861764862794e-08,5.291205461023797e-06,5.333910778213642e-05,9.865052311242325
1,67000000,-1.5432196660421186e-06,-2.0123270768312117e-07,3.246824936096647e-09,0.9999999999987892,0.009661755823467713,-0.0017212593673729874,-3.633367150951971e-08,4.068608423935877e-06,-3.3794037036250926e-05,9.7349476885542
1,77000000,2.5134887607816255e-06,-2.7581374545654643e-07,3.2924317183631334e-09,0.9999999999968032,-0.010213270566731074,-0.0021282230079745744,5.878286176419408e-08,5.291205461230314e-06,5.333910778183184e-05,9.86505231124094
1,87000000,-1.5432196660769452e-06,-2.012327077627445e-07,3.296069461907879e-09,0.9999999999987892,-0.017775172516298968,0.0018704199203926288,1.2406684078636016e-08,4.75305270942573e-06,-2.910753111566726e-05,9.182738970973551
1,97000000,2.513488760836248e-06,-2.758137453313198e-07,3.341676244173683e-09,0.9999999999968032,-0.010213270566735972,-0.0021282230079740323,5.878286176423275e-08,4.819460658512031e-06,5.2429533798459904e-05,10.305031750850347
1,107000000,-1.5432196660492396e-06,-2.0123270784515392e-07,3.34531398771871e-09,0.9999999999987892,0.009661755823486239,-0.001721259367400739,-3.6333671510430164e-08,4.068608424117957e-06,-3.379403703677512e-05,9.734947688554785
1,117000000,2.5134887608190796e-06,-2.7581374521252714e-07,3.390920769984888e-09,0.9999999999968032,-0.01021327056672663,-0.0021282230080059282,5.878286176446598e-08,5.291205461299818e-06,5.333910778204228e-05,9.865052311239875
1,127000000,-1.5432196660091715e-06,-2.0123270792323035e-07,3.394558513529148e-09,0.9999999999987892,-0.017775172516265137,0.001870419920436988,1.2406684078042908e-08,4.7530527096161484e-06,-2.910753111473762e-05,9.182738970974391
1,137000000,2.5134887608447507e-06,-2.758137450816611e-07,3.440165295794491e-09,0.9999999999968032,0.01832668659581195,0.0019790609491212455,-1.8558396410739065e-08,5.3676764585699475e-06,4.708814986524203e-05,9.792009275768962
1,147000000,-1.5432196659793128e-06,-2.0123270797580907e-07,3.4438030393400695e-09,0.9999999999987892,-0.017775172516250742,0.0018704199204115704,1.2406684077480776e-08,3.9812421733227014e-06,-2.8135707713868233e-05,9.80799072407555
1,157000000,2.5134887608862832e-06,-2.758137449642387e-07,3.4894098216057866e-09,0.9999999999968032,-0.010213270566750983,-0.0021282230080032177,5.8782861764438457e-08,4.819460658578941e-06,5.242953379860764e-05,10.305031750850125
1,167000000,-1.5432196660084854e-06,-2.0123270805670707e-07,3.493047565150168e-09,0.9999999999987892,0.009661755823493387,-0.001721259367369652,-3.6333671510056735e-08,4.068608423815996e-06,-3.37940370365554e-05,9.734947688553605
1,177000000,2.5134887608530617e-06,-2.7581374482749794e-07,3.5386543474151323e-09,0.9999999999968032,-0.010213270566723949,-0.0021282230079753667,5.878286176349073e-08,5.291205461026234e-06,5.333910778189165e-05,9.865052311239328
1,187000000,7.620123602211679e-06,7.882978882787954e-07,3.5427250980115247e-09,0.9999999999706561,0.009661755823505922,-0.001721259367604816,1.4332514757072679e-08,-1.5197448128447638e-05,0.00014461529776544935,9.73494768752952
1,197000000,2.5134887608911918e-06,-2.758137447137216e-07,3.5878988732241276e-09,0.9999999999968032,-0.010213270566749423,-0.002128223008003425,5.8782861764091524e-08,5.291205461222348e-06,5.333910778239326e-05,9.865052311242298
1,207000000,7.620123602138868e-06,7.88297888649667e-07,3.5919696238200966e-09,0.9999999999706561,0.018326686595710993,0.0019790609501585954,2.3220051018895215e-10,-1.380866256148629e-05,0.0001389786601208232,9.287703953315615
1,217000000,2.5134887609396446e-06,-2.758137446082079e-07,3.637143399032404e-09,0.9999999999968032,0.018326686595835515,0.001979060949147618,-1.855839641138737e-08,5.4059495735111585e-06,4.926437969464387e-05,9.799999999873798
1,227000000,7.620123602093587e-06,7.882978890156656e-07,3.6412141496273607e-09,0.9999999999706561,0.00966175582353177,-0.0017212593676014585,1.4332514756379966e-08,-1.686244091561748e-05,0.0001554218898321315,10.253157579548915
1,237000000,2.5134887609207397e-06,-2.7581374447377656e-07,3.686387924840381e-09,0.9999999999968032,-0.01021327056673788,-0.002128223008004675,5.878286176396714e-08,5.291205461372769e-06,5.333910778244032e-05,9.865052311239365
1,247000000,7.620123602047785e-06,7.882978893950112e-07,3.690458675433397e-09,0.9999999999706561,0.00966175582349273,-0.0017212593676065463,1.4332514756459548e-08,-1.5197448128251263e-05,0.00014461529776450485,9.734947687528917
1,257000000,2.5134887609224956e-06,-2.758137443449331e-07,3.735632450647341e-09,0.9999999999968032,-0.010213270566728895,-0.002128223008005685,5.8782861763724686e-08,5.291205461270329e-06,5.3339107782191e-05,9.865052311240325
1,267000000,-1.5432196659774298e-06,-2.012327084407212e-07,3.739270194190471e-09,0.9999999999987892,0.009661755823486495,-0.0017212593673705512,-3.63336715107064e-08,4.068608423897785e-06,-3.3794037036898236e-05,9.734947688556161
1,277000000,2.5134887609464243e-06,-2.7581374422988507e-07,3.784876976452928e-09,0.9999999999968032,-0.010213270566737749,-0.002128223008004683,5.878286176381599e-08,5.291205461434096e-06,5.3339107782402414e-05,9.865052311240715
1,287000000,7.620123602008097e-06,7.882978901352228e-07,3.788947727042657e-09,0.9999999999706561,-0.017775172516228756,0.0018704199200089585,-5.705006847490565e-08,-1.3420149035123022e-05,0.00013918164761273958,9.182738969955327
1,298000000,-1.5432196659567334e-06,-2.0123270857633394e-07,3.818061435480081e-09,0.9999999999987892,-0.01021327056666943,-0.0021282230087156986,3.9992268433136185e-08,3.2823404603734773e-06,-3.117948448343921e-05,10.305031750935036
1,308000000,7.620123601943453e-06,7.882978905129276e-07,3.838192252847183e-09,0.9999999999706561,0.0183266865957184,0.0019790609501354355,2.3220050965844783e-10,-1.3808662561249387e-05,0.0001389786601208329,9.287703953316825
1,318000000,-6.374097480665657e-06,6.593962482729578e-07,3.883206627936627e-09,0.9999999999794682,-0.01021327056687083,-0.0021282230085619084,1.8502246426754773e-09,-1.4769605138122568e-05,-0.00012977549532802214,10.426139610514255
1,328000000,7.620123601936766e-06,7.882978908980841e-07,3.887436778651858e-09,0.9999999999706561,0.018326686595718573,0.0019790609501354494,2.322005098974315e-10,-1.380866256141739e-05,0.00013897866012139014,9.28770395331389
1,338000000,-6.374097480684512e-06,6.593962479552861e-07,3.932451153741247e-09,0.9999999999794682,-0.01777517251622501,0.00187041992100254,-1.1743276234434258e-10,-1.2900839847165415e-05,-0.00012289811723903462,9.807990723338918
1,348000000,7.620123601869838e-06,7.882978912720714e-07,3.936681304454884e-09,0.9999999999706561,0.009661755823516659,-0.0017212593676034311,1.4332514755914135e-08,-1.719980495659773e-05,0.00015426150337356345,10.344980681832652
1,358000000,-6.37409748071991e-06,6.593962476406989e-07,3.9816956795437e-09,0.9999999999794682,-0.010213270566782366,-0.0021282230085460986,1.8502246419397415e-09,-1.3160586210611077e-05,-0.00012201389853468809,9.86505231062161
1,368000000,7.620123601824899e-06,7.882978916513625e-07,3.985925830257691e-09,0.9999999999706561,0.018326686595710847,0.0019790609501585893,2.322005102129505e-10,-1.3808662561475472e-05,0.00013897866012080418,9.287703953316571
1,378000000,-6.3740974807050345e-06,6.593962473140375e-07,4.030940205346387e-09,0.9999999999794682,-0.01777517251617215,0.001870419920997072,-1.174327620224916e-10,-1.2900839846909489e-05,-0.000122898117238114,9.807990723338573
1,388000000,7.620123601809053e-06,7.88297892026808e-07,4.035170356060882e-09,0.9999999999706561,0.009661755823459206,-0.0017212593675505592,1.4332514755650999e-08,-1.719980495665858e-05,0.00015426150337386325,10.34498068182895
1,398000000,-6.374097480751484e-06,6.593962470078541e-07,4.080184731150953e-09,0.9999999999794682,-0.01777517251620558,0.0018704199210005288,-1.174327622400103e-10,-1.160798312133808e-05,-0.000116467336343683,9.354106713182711
1,408000000,7.6201236017877835e-06,7.882978924058542e-07,4.0844148818634805e-09,0.9999999999706561,0.018326686595728173,0.001979060950160376,2.3220051020584258e-10,-1.5471905150372763e-05,0.00014709658140501852,9.792009274766592
1,418000000,-6.3740974808027685e-06,6.59396246698548e-07,4.1294292569534254e-09,0.9999999999794682,-0.017775172516217328,0.0018704199210017427,-1.174327623302061e-10,-1.2900839847149675e-05,-0.00012289811723877294,9.807990723338166
1,428000000,7.620123601754016e-06,7.882978927694727e-07,4.133659407666025e-09,0.9999999999706561,0.01832668659572039,0.001979060950135643,2.3220050968935558e-10,-1.547190515015274e-05,0.00014709658140513965,9.792009274766567
1,439000000,7.62012360167278e-06,7.882978929885041e-07,4.163206123146851e-09,0.9999999999706561,0.00966175582352955,-0.001721259367601735,1.4332514755138014e-08,-1.686244091552101e-05,0.0001554218898319377,10.25315757954871
1,449000000,-6.374097480866769e-06,6.593962461927999e-07,4.208220498236519e-09,0.9999999999794682,-0.01021327056678264,-0.0021282230085460582,1.8502246415349216e-09,-1.316058621053348e-05,-0.00012201389853462378,9.865052310620403
1,459000000,-1.5432196658343914e-06,-2.012327091649006e-07,4.212017641913196e-09,0.9999999999987892,0.009661755823486568,-0.0017212593673705335,-3.633367151146401e-08,4.068608423803483e-06,-3.379403703592483e-05,9.734947688554735
1,469000000,2.513488761026092e-06,-2.7581374302292887e-07,4.257624424173177e-09,0.9999999999968032,-0.010213270566734302,-0.0021282230079742287,5.878286176187912e-08,5.291205461062711e-06,5.333910778134561e-05,9.865052311239776
1,479000000,-1.5432196658137204e-06,-2.0123270925041525e-07,4.2612621677140655e-09,0.9999999999987892,0.009661755823460015,-0.0017212593673739947,-3.6333671511641084e-08,4.068608423982441e-06,-3.3794037035688313e-05,9.734947688554834
1,489000000,2.513488761070672e-06,-2.7581374290459995e-07,4.3068689499732015e-09,0.9999999999968032,-0.010213270566729105,-0.0021282230079747765,5.87828617619652e-08,5.2912054611679265e-06,5.3339107781964396e-05,9.865052311242941
1,499000000,-1.5432196658058997e-06,-2.0123270931169395e-07,4.310506693515242e-09,0.9999999999987892,0.009661755823440598,-0.0017212593673463842,-3.633367151105514e-08,4.068608423705843e-06,-3.3794037035726776e-05,9.734947688553346
1,509000000,2.5134887611163077e-06,-2.7581374279265926e-07,4.3561134757742705e-09,0.9999999999968032,0.01832668659582857,0.0019790609491468886,-1.8558396410945708e-08,5.952750217392881e-06,4.750530052226572e-05,9.246140734533013
1,519000000,-1.5432196658167434e-06,-2.0123270940485805e-07,4.359751219316115e-09,0.9999999999987892,-0.017775172516260946,0.00187041992041263,1.2406684078200974e-08,3.981242173617257e-06,-2.8135707714303455e-05,9.807990724075333
1,530000000,-6.374097480985125e-06,6.593962449362945e-07,4.405198601436893e-09,0.9999999999794682,-0.010213270566785563,-0.0021282230085148605,1.8502246413604553e-09,-1.4455277380133524e-05,-0.0001307441829431022,10.305031750143348
1,540000000,7.6201236014859916e-06,7.882978948654533e-07,4.409428752144484e-09,0.9999999999706561,0.01832668659569999,0.0019790609501096033,2.3220050962947078e-10,-1.3808662561244642e-05,0.00013897866012073154,9.28770395331583
1,550000000,-6.374097480974898e-06,6.59396244628118e-07,4.454443127234244e-09,0.9999999999794682,-0.01777517251617238,0.00187041992102102,-1.1743276262184759e-10,-1.2900839847152178e-05,-0.00012289811723793995,9.807990723339346
1,560000000,7.620123601504843e-06,7.882978952549502e-07,4.458673277942975e-09,0.9999999999706561,0.01832668659571717,0.001979060950159233,2.3220051007429835e-10,-1.5471905150325557e-05,0.0001470965814052479,9.792009274765261
1,570000000,-6.374097481068706e-06,6.593962443084072e-07,4.503687653034371e-09,0.9999999999794682,-0.017775172516223476,0.0018704199209784568,-1.1743276194197957e-10,-1.2900839847067522e-05,-0.00012289811723917475,9.807990723338298
1,580000000,7.620123601479994e-06,7.882978956267859e-07,4.507917803741254e-09,0.9999999999706561,0.018326686595733166,0.0019790609501130333,2.322005097528225e-10,-1.54719051502578e-05,0.00014709658140556642,9.792009274767164
1,590000000,-6.3740974810356755e-06,6.593962440018096e-07,4.552932178832996e-09,0.9999999999794682,-0.017775172516198968,0.0018704199209998453,-1.174327625617546e-10,-1.2900839847186349e-05,-0.00012289811723786688,9.807990723338436
1,600000000,7.620123601367282e-06,7.882978959957603e-07,4.557162329539444e-09,0.9999999999706561,0.01832668659570269,0.0019790609501338114,2.3220050988853928e-10,-1.5471905150133477e-05,0.00014709658140406396,9.792009274766556
1,610000000,-6.37409748110137e-06,6.593962436729645e-07,4.602176704630306e-09,0.9999999999794682,-0.017775172516189944,0.0018704199209749917,-1.1743276178072404e-10,-1.2900839846913252e-05,-0.00012289811723850845,9.807990723338888
1,620000000,7.620123601373959e-06,7.882978963841588e-07,4.606406855336145e-09,0.9999999999706561,0.009661755823490244,-0.0017212593675766765,1.4332514754643727e-08,-1.7199804956753013e-05,0.00015426150337416838,10.344980681829428
1,630000000,-1.5432196657732923e-06,-2.0123270982307548e-07,4.635520563792586e-09,0.9999999999987892,-0.017775172516269474,0.0018704199204135038,1.2406684078016176e-08,4.49284743763479e-06,-2.6090243207245737e-05,9.354106713876927
1,640000000,7.620123601295122e-06,7.882978967480253e-07,4.655651381133469e-09,0.9999999999706561,0.018326686595696327,0.001979060950133154,2.322005099356613e-10,-1.5471905150168168e-05,0.00014709658140418973,9.79200927476684
1,650000000,-6.37409748116462e-06,6.593962430563781e-07,4.700665756224274e-09,0.9999999999794682,-0.01021327056672936,-0.0021282230085572,1.8502246397392665e-09,-1.4769605137988674e-05,-0.00012977549532729117,10.426139610512672
1,660000000,7.620123601269719e-06,7.882978971328073e-07,4.704895906929956e-09,0.9999999999706561,0.018326686595698888,0.0019790609501334233,2.322005102350027e-10,-1.3808662561527336e-05,0.00013897866012108244,9.287703953316415
1,670000000,-6.374097481228633e-06,6.593962427426314e-07,4.749910282021324e-09,0.9999999999794682,-0.01777517251622564,0.001870419921002612,-1.1743276217990822e-10,-1.2900839847126477e-05,-0.00012289811723909858,9.807990723337927
1,680000000,7.620123601224883e-06,7.882978975033605e-07,4.7541404327240906e-09,0.9999999999706561,0.009661755823508115,-0.0017212593676045175,1.4332514754221915e-08,-1.7199804956640375e-05,0.00015426150337352943,10.344980681832029
1,690000000,-6.374097481265489e-06,6.59396242432377e-07,4.799154807816219e-09,0.9999999999794682,-0.017775172516224697,0.0018704199210025088,-1.1743276228771467e-10,-1.1607983121455515e-05,-0.00011646733634438588,9.35410671318065
1,700000000,7.620123601272114e-06,7.882978978908674e-07,4.803384958518688e-09,0.9999999999706561,0.009661755823475428,-0.0017212593675786294,1.433251475455492e-08,-1.71998049568729e-05,0.00015426150337526984,10.344980681827572
1,710000000,-6.3740974812276166e-06,6.593962421156072e-07,4.8483993336119495e-09,0.9999999999794682,-0.017775172516192633,0.0018704199209991907,-1.1743276244298642e-10,-1.1607983121416421e-05,-0.00011646733634312487,9.354106713184713
1,720000000,7.620123601186689e-06,7.882978982624211e-07,4.852629484314283e-09,0.9999999999706561,0.01832668659572795,0.0019790609501364265,2.322005102547116e-10,-1.547190515043303e-05,0.00014709658140510195,9.792009274766095
1,730000000,-6.374097481324012e-06,6.59396241797421e-07,4.897643859406724e-09,0.9999999999794682,-0.01777517251619738,0.0018704199209757506,-1.1743276192808965e-10,-1.2900839847064637e-05,-0.00012289811723909186,9.807990723338454
1,740000000,2.513488761246422e-06,-2.758137413521566e-07,4.927349975029767e-09,0.9999999999968032,0.018326686595808078,0.0019790609491447714,-1.8558396410614008e-08,5.367676458765929e-06,4.708814986511406e-05,9.792009275769107
1,750000000,-6.374097481360877e-06,6.593962414917391e-07,4.946888385200366e-09,0.9999999999794682,-0.010213270566782983,-0.0021282230085460222,1.8502246397484133e-09,-1.4769605138100945e-05,-0.00012977549532801165,10.426139610512854
1,760000000,7.6201236011208645e-06,7.882978990052076e-07,4.951118535900567e-09,0.9999999999706561,0.018326686595711326,0.001979060950134701,2.322005099294915e-10,-1.380866256144712e-05,0.0001389786601219398,9.28770395331566
1,770000000,-6.374097481416232e-06,6.593962411703335e-07,4.9961329109942816e-09,0.9999999999794682,-0.010213270566852528,-0.0021282230085022035,1.8502246406848938e-09,-1.4769605137944657e-05,-0.00012977549532851816,10.426139610514543
1,780000000,7.620123601063279e-06,7.882978993791207e-07,5.000363061693067e-09,0.9999999999706561,0.018326686595717814,0.001979060950135379,2.3220050995905289e-10,-1.3808662561419583e-05,0.0001389786601215588,9.287703953315463
1,790000000,-1.5432196657178752e-06,-2.0123271044214042e-07,5.0294767701570206e-09,0.9999999999987892,0.009661755823484743,-0.0017212593674009293,-3.633367151404517e-08,3.4291846901809316e-06,-3.248451522551768e-05,10.253157580686896
1,800000000,7.62012360104086e-06,7.882978997550272e-07,5.049607587484981e-09,0.9999999999706561,0.018326686595711298,0.0019790609501346996,2.3220050991815503e-10,-1.372510128185453e-05,0.0001419386294349426,9.24614073355228
1,810000000,-6.374097481469251e-06,6.593962405453945e-07,5.094621962578597e-09,0.9999999999794682,-0.01777517251626967,0.0018704199209832332,-1.1743276198001186e-10,-1.2900839847130793e-05,-0.00012289811723938094,9.80799072333854
1,820000000,7.620123600950499e-06,7.882979001323715e-07,5.098852113275837e-09,0.9999999999706561,0.018326686595710587,0.0019790609501585507,2.3220051027498217e-10,-1.5471905150291475e-05,0.0001470965814042779,9.792009274766713
1,830000000,-1.5432196656998326e-06,-2.012327105896368e-07,5.127965821741241e-09,0.9999999999987892,-0.017775172516281888,0.0018704199204147927,1.2406684078398986e-08,3.981242173590887e-06,-2.8135707715065622e-05,9.807990724075108
1,840000000,7.620123600901188e-06,7.882979005107135e-07,5.148096639066288e-09,0.9999999999706561,0.018326686595688004,0.0019790609501562197,2.322005104309268e-10,-1.5471905150357503e-05,0.00014709658140410467,9.792009274767455
1,850000000,-6.374097481485328e-06,6.593962399105725e-07,5.193111014159648e-09,0.9999999999794682,-0.017775172516207114,0.0018704199210006892,-1.1743276202236353e-10,-1.2900839846996625e-05,-0.0001228981172383886,9.80799072333842
1,860000000,7.620123600899552e-06,7.882979008792142e-07,5.1973411648574895e-09,0.9999999999706561,0.009661755823495552,-0.001721259367606149,1.4332514753363536e-08,-1.7199804956608648e-05,0.00015426150337399032,10.344980681830384
1,870000000,-6.37409748152499e-06,6.593962395981522e-07,5.242355539951267e-09,0.9999999999794682,-0.017775172516210847,0.0018704199210010759,-1.1743276204341032e-10,-1.160798312128511e-05,-0.00011646733634378126,9.354106713181935
1,880000000,7.620123600865344e-06,7.882979012458148e-07,5.246585690647971e-09,0.9999999999706561,0.018326686595724364,0.0019790609501121183,2.3220050956326154e-10,-1.547190515007367e-05,0.00014709658140490012,9.792009274766796
1,890000000,-6.374097481563178e-06,6.593962392847416e-07,5.291600065742457e-09,0.9999999999794682,-0.010213270566795276,-0.002128223008544666,1.850224639330222e-09,-1.4769605137900259e-05,-0.00012977549532751883,10.426139610513998
1,900000000,7.620123600838792e-06,7.882979016277263e-07,5.295830216438079e-09,0.9999999999706561,0.009661755823493781,-0.001721259367576228,1.4332514752982856e-08,-1.5197448128199622e-05,0.00014461529776566248,9.734947687527228
1,910000000,-6.374097481590556e-06,6.593962389831398e-07,5.340844591532548e-09,0.9999999999794682,-0.01021327056678971,-0.002128223008545259,1.850224638933179e-09,-1.3160586210766674e-05,-0.00012201389853430051,9.86505231062495
1,920000000,7.620123600764236e-06,7.882979020096894e-07,5.34507474222841e-09,0.9999999999706561,0.018326686595701774,0.0019790609501337164,2.3220051022392992e-10,-1.3808662561481906e-05,0.00013897866012107225,9.287703953315242
1,930000000,-6.374097481639173e-06,6.593962386570186e-07,5.390089117322496e-09,0.9999999999794682,-0.01777517251621717,0.0018704199210017299,-1.174327619876005e-10,-1.2900839847028063e-05,-0.00012289811723887608,9.807990723338094
1,940000000,7.620123600743898e-06,7.882979023787278e-07,5.39431926801701e-09,0.9999999999706561,0.0183266865957049,0.0019790609501340387,2.3220050992476147e-10,-1.547190515020612e-05,0.00014709658140482393,9.79200927476679
1,950000000,-6.37409748169487e-06,6.593962383497593e-07,5.439333643111359e-09,0.9999999999794682,-0.01777517251623194,0.0018704199209793315,-1.1743276201259624e-10,-1.2900839847165737e-05,-0.00012289811723934763,9.80799072333761
1,960000000,7.620123600666277e-06,7.882979027470649e-07,5.4435637938046295e-09,0.9999999999706561,0.018326686595700945,0.001979060950133627,2.3220050982812154e-10,-1.54719051500596e-05,0.0001470965814040599,9.792009274767377
1,970000000,-1.5432196655974932e-06,-2.0123271111354352e-07,5.4726775022777305e-09,0.9999999999987892,-0.01777517251626784,0.0018704199204133353,1.2406684078010257e-08,3.981242173440854e-06,-2.813570771439057e-05,9.807990724075484
1,980000000,7.6201236006707495e-06,7.882979031382301e-07,5.4928083195922005e-09,0.9999999999706561,0.018326686595719958,0.0019790609501595226,2.3220051031864753e-10,-1.5471905150374034e-05,0.00014709658140489403,9.792009274766782
1,990000000,-6.374097481739654e-06,6.593962377157865e-07,5.537822694687492e-09,0.9999999999794682,-0.01777517251622034,0.0018704199209542008,-1.1743276173793924e-10,-1.290083984706024e-05,-0.00012289811723893075,9.80799072333738
2,0,7.620123600577105e-06,7.882979035021109e-07,5.542052845379057e-09,0.9999999999706561,0.018326686595698232,0.0019790609501333534,2.3220051004669166e-10,-1.547190515014181e-05,0.0001470965814038333,9.792009274767558
2,10000000,-6.37409748176458e-06,6.593962374047862e-07,5.587067220473776e-09,0.9999999999794682,-0.017775172516225787,0.0018704199210026191,-1.174327621047045e-10,-1.290083984709399e-05,-0.00012289811723876785,9.807990723338609
2,20000000,7.620123600589472e-06,7.882979038760237e-07,5.59129737116537e-09,0.9999999999706561,0.018326686595713966,0.001979060950111048,2.3220050972602975e-10,-1.5471905150141025e-05,0.00014709658140481263,9.792009274766475
2,30000000,-6.374097481777065e-06,6.593962370923149e-07,5.636311746260788e-09,0.9999999999794682,-0.017775172516203693,0.0018704199210003388,-1.1743276222469535e-10,-1.2900839847112552e-05,-0.00012289811723838637,9.807990723338087
2,40000000,7.6201236005468565e-06,7.882979042516472e-07,5.640541896951955e-09,0.9999999999706561,0.01832668659571562,0.0019790609501351545,2.322005098298041e-10,-1.5471905150139413e-05,0.0001470965814047328,9.792009274766437
2,50000000,-6.374097481828836e-06,6.5939623677502e-07,5.6855562720472465e-09,0.9999999999794682,-0.01777517251619526,0.0018704199209994613,-1.174327620274492e-10,-1.2900839847056214e-05,-0.00012289811723877533,9.807990723338616
2,60000000,7.620123600491785e-06,7.882979046211271e-07,5.689786422737319e-09,0.9999999999706561,0.018326686595698204,0.0019790609501333487,2.3220050968380634e-10,-1.547190515002577e-05,0.00014709658140443275,9.792009274766569
2,70000000,-6.374097481819919e-06,6.593962364623369e-07,5.734800797831886e-09,0.9999999999794682,-0.017775172516169332,0.0018704199209967798,-1.174327622189051e-10,-1.2900839847078802e-05,-0.00012289811723796099,9.807990723338742
2,80000000,7.620123600498228e-06,7.882979050190876e-07,5.739030948522527e-09,0.9999999999706561,0.01832668659571697,0.0019790609501592147,2.322005104155233e-10,-1.5471905150464565e-05,0.00014709658140531792,9.792009274765531
2,90000000,-6.374097481910967e-06,6.593962361578358e-07,5.784045323618285e-09,0.9999999999794682,-0.017775172516222886,0.0018704199209783948,-1.1743276221153496e-10,-1.290083984727753e-05,-0.00012289811723914607,9.807990723338303
2,100000000,7.620123600432888e-06,7.882979053787937e-07,5.788275474307052e-09,0.9999999999706561,0.018326686595704453,0.0019790609501339905,2.322005098774651e-10,-1.547190515015895e-05,0.00014709658140482968,9.792009274767192
2,110000000,-6.374097481940976e-06,6.593962358364745e-07,5.833289849402644e-09,0.9999999999794682,-0.01777517251622817,0.001870419921002869,-1.1743276207013505e-10,-1.2900839847115782e-05,-0.0001228981172390746,9.807990723337971
2,120000000,7.620123600375945e-06,7.882979057595792e-07,5.837520000090631e-09,0.9999999999706561,0.018326686595708602,0.00197906095015835,2.3220051022971292e-10,-1.5471905150265803e-05,0.00014709658140444533,9.79200927476721
2,130000000,-6.374097481966166e-06,6.593962355254901e-07,5.882534375185943e-09,0.9999999999794682,-0.017775172516232157,0.0018704199209793521,-1.17432762076554e-10,-1.2900839847189948e-05,-0.00012289811723889817,9.807990723338046
2,140000000,7.620123600336834e-06,7.882979061318008e-07,5.886764525872888e-09,0.9999999999706561,0.009661755823502807,-0.0017212593675750706,1.4332514751575629e-08,-1.7199804956574496e-05,0.00015426150337358868,10.344980681831458
2,150000000,-6.374097482008962e-06,6.59396235211088e-07,5.9317789009691004e-09,0.9999999999794682,-0.01777517251622451,0.0018704199210024892,-1.1743276213426308e-10,-1.1607983121429085e-05,-0.000116467336344305,9.35410671318086
2,160000000,7.620123600307989e-06,7.882979065082294e-07,5.936009051655586e-09,0.9999999999706561,0.01832668659571368,0.0019790609501349503,2.322005100558421e-10,-1.547190515023811e-05,0.0001470965814046298,9.792009274766771
2,170000000,-6.37409748201362e-06,6.593962348862092e-07,5.981023426751758e-09,0.9999999999794682,-0.017775172516215014,0.0018704199210015052,-1.1743276184297972e-10,-1.290083984694821e-05,-0.00012289811723856708,9.807990723338298
2,180000000,7.6201236002663395e-06,7.882979068857841e-07,5.985253577438124e-09,0.9999999999706561,0.018326686595710875,0.0019790609501346558,2.3220051015289646e-10,-1.547190515028392e-05,0.00014709658140457386,9.792009274766672
2,190000000,-6.374097482002619e-06,6.593962345785617e-07,6.030267952535403e-09,0.9999999999794682,-0.017775172516193195,0.0018704199210231736,-1.1743276234358946e-10,-1.2900839847060776e-05,-0.0001228981172377055,9.807990723338888
2,201000000,-6.374097482056947e-06,6.593962343882023e-07,6.059814668005933e-09,0.9999999999794682,-0.01021327056680193,-0.002128223008574788,1.8502246374924115e-09,-1.4455277380157168e-05,-0.00013074418294282817,10.305031750144515
2,211000000,-1.5432196655098829e-06,-2.0123271203414138e-07,6.063611811708528e-09,0.9999999999987892,0.009661755823521802,-0.0017212593673961276,-3.6333671516308527e-08,4.0686084240649034e-06,-3.379403703680807e-05,9.7349476885559
2,221000000,2.5134887615824655e-06,-2.7581373838742396e-07,6.109218593954117e-09,0.9999999999968032,-0.010213270566652026,-0.0021282230079885897,5.878286175761752e-08,5.291205461409273e-06,5.3339107782146264e-05,9.865052311236967
2,231000000,-1.543219665490767e-06,-2.012327121158862e-07,6.112856337490285e-09,0.9999999999987892,-0.01777517251628458,0.0018704199204150774,1.2406684078673965e-08,4.753052709604527e-06,-2.910753111503499e-05,9.182738970975985
2,241000000,2.5134887616125572e-06,-2.7581373826106316e-07,6.158463119735365e-09,0.9999999999968032,-0.010213270566674064,-0.0021282230079861437,5.8782861757576504e-08,4.819460658660052e-06,5.242953379819973e-05,10.30503175084813
2,251000000,-1.5432196654897159e-06,-2.0123271217898423e-07,6.1621008632714925e-09,0.9999999999987892,-0.01777517251628708,0.0018704199204153287,1.2406684078252576e-08,4.753052709367609e-06,-2.9107531115215228e-05,9.182738970973213
2,261000000,2.513488761579948e-06,-2.7581373812111405e-07,6.2077076455160734e-09,0.9999999999968032,-0.010213270566705296,-0.0021282230079774506,5.8782861757608976e-08,4.819460658322893e-06,5.2429533797249575e-05,10.305031750846522
2,271000000,-1.5432196654349586e-06,-2.012327122651997e-07,6.211345389051313e-09,0.9999999999987892,0.009661755823452791,-0.0017212593673749325,-3.63336715159726e-08,4.068608424123281e-06,-3.379403703585087e-05,9.734947688555907
2,281000000,2.513488761657357e-06,-2.758137380105271e-07,6.256952171296875e-09,0.9999999999968032,-0.01021327056674662,-0.002128223008003701,5.8782861758450814e-08,5.291205461269157e-06,5.3339107782858646e-05,9.865052311244963
2,291000000,-1.5432196654515748e-06,-2.0123271233633362e-07,6.260589914832737e-09,0.9999999999987892,0.009661755823496404,-0.0017212593673692582,-3.633367151619922e-08,4.068608424037379e-06,-3.379403703641415e-05,9.7349476885535
2,301000000,2.513488761645213e-06,-2.75813737892549e-07,6.306196697077742e-09,0.9999999999968032,0.018326686595821987,0.001979060949122285,-1.8558396411167465e-08,5.952750217423905e-06,4.7505300522156395e-05,9.2461407345287
2,311000000,7.620123600026556e-06,7.88297909356155e-07,6.310267447588601e-09,0.9999999999706561,0.009661755823516072,-0.0017212593675733111,1.433251475064161e-08,-1.6862440915644858e-05,0.00015542188983284834,10.253157579547056
2,321000000,2.5134887616440914e-06,-2.758137377617385e-07,6.355441222858166e-09,0.9999999999968032,-0.010213270566760612,-0.0021282230080021704,5.878286175808952e-08,5.2912054612449895e-06,5.3339107782059284e-05,9.865052311241891
2,331000000,-1.5432196654367568e-06,-2.0123271248556325e-07,6.359078966393457e-09,0.9999999999987892,0.009661755823469523,-0.0017212593673727513,-3.6333671516299706e-08,4.068608423985865e-06,-3.379403703649927e-05,9.734947688554087
2,341000000,2.5134887616525863e-06,-2.758137376385402e-07,6.404685748637679e-09,0.9999999999968032,-0.010213270566726542,-0.0021282230080059313,5.878286175790275e-08,5.291205461255847e-06,5.3339107781931396e-05,9.865052311240634
2,351000000,-1.543219665387302e-06,-2.0123271256039417e-07,6.408323492172291e-09,0.9999999999987892,-0.017775172516229655,0.0018704199204093903,1.2406684078088528e-08,4.753052709415232e-06,-2.9107531114245067e-05,9.182738970974622
2,361000000,2.5134887617069074e-06,-2.758137375211204e-07,6.453930274417804e-09,0.9999999999968032,-0.010213270566808161,-0.002128223008022493,5.878286175914195e-08,4.819460658686688e-06,5.24295337985175e-05,10.305031750850658
2,371000000,-1.5432196653921089e-06,-2.0123271263474788e-07,6.457568017953526e-09,0.9999999999987892,0.00966175582345686,-0.0017212593673442199,-3.6333671515974055e-08,4.068608423956184e-06,-3.3794037036010755e-05,9.73494768855085
2,381000000,2.513488761704727e-06,-2.7581373738720394e-07,6.503174800197406e-09,0.9999999999968032,-0.010213270566737003,-0.002128223008004759,5.878286175773857e-08,5.291205461169518e-06,5.3339107782427554e-05,9.86505231124338
2,391000000,-1.5432196653987234e-06,-2.012327127119201e-07,6.506812543732562e-09,0.9999999999987892,0.009661755823480528,-0.001721259367371315,-3.633367151659118e-08,4.0686084239553905e-06,-3.379403703633318e-05,9.734947688554977
2,401000000,2.5134887617098203e-06,-2.758137372707244e-07,6.5524193259758e-09,0.9999999999968032,-0.0102132705667572,-0.0021282230080025342,5.87828617577728e-08,5.291205461322997e-06,5.333910778227316e-05,9.865052311241737
2,411000000,-1.5432196653768513e-06,-2.012327127978357e-07,6.556057069510272e-09,0.9999999999987892,0.00966175582348007,-0.0017212593673713902,-3.633367151684386e-08,4.068608424151075e-06,-3.379403703608493e-05,9.734947688553191
2,421000000,2.5134887617165915e-06,-2.7581373714018044e-07,6.601663851753487e-09,0.9999999999968032,0.018326686595803277,0.0019790609491682,-1.8558396410099164e-08,5.952750217260671e-06,4.7505300521968455e-05,9.246140734530208
2,431000000,-1.5432196653861314e-06,-2.0123271287573384e-07,6.6053015952880744e-09,0.9999999999987892,0.009661755823495006,-0.0017212593673996027,-3.633367151745769e-08,3.4291846902065145e-06,-3.248451522524518e-05,10.253157580687581
2,441000000,2.5134887617122733e-06,-2.758137370224744e-07,6.6509083775296445e-09,0.9999999999968032,-0.010213270566747956,-0.0021282230080035716,5.8782861757424197e-08,5.291205461316198e-06,5.333910778176762e-05,9.865052311239694
2,451000000,-1.543219665383741e-06,-2.0123271295305492e-07,6.65454612106337e-09,0.9999999999987892,0.009661755823485729,-0.001721259367400811,-3.633367151758769e-08,4.068608424205229e-06,-3.379403703661503e-05,9.734947688556055
2,461000000,2.5134887617307954e-06,-2.758137368958434e-07,6.7001529033055746e-09,0.9999999999968032,-0.010213270566726622,-0.0021282230080059486,5.8782861757242826e-08,5.291205461258571e-06,5.3339107781857006e-05,9.86505231123987
2,471000000,-1.5432196653305203e-06,-2.0123271301803093e-07,6.703790646839824e-09,0.9999999999987892,0.00966175582344705,-0.001721259367375679,-3.633367151686473e-08,4.068608424002887e-06,-3.379403703573135e-05,9.734947688553223
2,481000000,2.5134887617821163e-06,-2.7581373678079326e-07,6.749397429082099e-09,0.9999999999968032,-0.01021327056674184,-0.0021282230080351032,5.8782861757826187e-08,5.291205461412887e-06,5.3339107782608405e-05,9.865052311245247
2,491000000,-1.54321966536028e-06,-2.0123271309890902e-07,6.753035172616532e-09,0.9999999999987892,0.009661755823492732,-0.0017212593673998865,-3.633367151769128e-08,4.0686084240945005e-06,-3.379403703654161e-05,9.734947688554875
2,501000000,2.5134887618053436e-06,-2.758137366504041e-07,6.798641954859201e-09,0.9999999999968032,-0.010213270566807304,-0.0021282230080225963,5.878286175831644e-08,5.2912054612844e-06,5.3339107782836935e-05,9.865052311242605
2,511000000,7.620123599662848e-06,7.882979131221109e-07,6.802712705355342e-09,0.9999999999706561,0.009661755823475853,-0.0017212593675785726,1.4332514750056705e-08,-1.5197448128379223e-05,0.00014461529776590694,9.734947687523977
2,521000000,2.513488761758512e-06,-2.7581373652238235e-07,6.847886480634727e-09,0.9999999999968032,-0.010213270566729599,-0.002128223007974736,5.87828617564617e-08,5.291205461210612e-06,5.3339107781580365e-05,9.86505231124216
2,531000000,-1.5432196653428294e-06,-2.012327132574685e-07,6.851524224168225e-09,0.9999999999987892,0.009661755823479794,-0.0017212593674015928,-3.6333671517996955e-08,4.068608424210191e-06,-3.379403703658153e-05,9.734947688557561
2,541000000,2.513488761759349e-06,-2.758137363887074e-07,6.8971310064076935e-09,0.9999999999968032,-0.010213270566653325,-0.002128223007957584,5.8782861755047e-08,5.2912054610389615e-06,5.333910778128574e-05,9.86505231123605
2,551000000,-1.5432196653165637e-06,-2.0123271332180087e-07,6.9007687499407225e-09,0.9999999999987892,0.009661755823455773,-0.0017212593673745483,-3.633367151739678e-08,4.068608423979657e-06,-3.3794037036207606e-05,9.734947688557526
2,561000000,2.5134887618308673e-06,-2.7581373628882244e-07,6.946375532181498e-09,0.9999999999968032,-0.010213270566738096,-0.0021282230080355187,5.878286175742765e-08,5.291205461471295e-06,5.3339107782487185e-05,9.865052311243344
2,571000000,-1.5432196653025504e-06,-2.0123271340260008e-07,6.950013275715128e-09,0.9999999999987892,0.009661755823466983,-0.001721259367373075,-3.6333671517612785e-08,4.068608424102702e-06,-3.3794037036160084e-05,9.7349476885535
2,581000000,2.513488761842796e-06,-2.758137361531934e-07,6.995620057955616e-09,0.9999999999968032,-0.010213270566738814,-0.002128223008004571,5.878286175673007e-08,5.2912054612441755e-06,5.333910778244671e-05,9.865052311242502
2,591000000,-1.5432196652738622e-06,-2.0123271347410565e-07,6.999257801488377e-09,0.9999999999987892,0.009661755823468433,-0.0017212593673728881,-3.6333671517575794e-08,4.06860842400906e-06,-3.379403703577821e-05,9.734947688552401
2,601000000,2.513488761836909e-06,-2.7581373602132223e-07,7.044864583729151e-09,0.9999999999968032,-0.010213270566803673,-0.002128223007992135,5.8782861757075245e-08,5.291205461075958e-06,5.333910778208793e-05,9.865052311244398
2,611000000,-1.5432196652773105e-06,-2.0123271354667573e-07,7.048502327261942e-09,0.9999999999987892,0.009661755823483706,-0.0017212593673708986,-3.633367151770522e-08,4.068608423949908e-06,-3.3794037036070515e-05,9.734947688553083
2,621000000,2.513488761843188e-06,-2.7581373590574236e-07,7.094109109501438e-09,0.9999999999968032,-0.010213270566731466,-0.0021282230080053983,5.8782861756412733e-08,5.291205461244252e-06,5.3339107781908966e-05,9.86505231124146
2,631000000,-1.5432196652519758e-06,-2.0123271362048417e-07,7.097746853033941e-09,0.9999999999987892,0.009661755823468468,-0.001721259367342724,-3.6333671517310725e-08,4.068608423910399e-06,-3.37940370357368e-05,9.734947688554074
2,641000000,-6.37409748279265e-06,6.593962274895609e-07,7.143194235088333e-09,0.9999999999794682,0.018326686595775483,0.00197906094885928,5.089835542391054e-08,-1.1341416830160563e-05,-0.00011684644577097283,9.246140733909426
2,651000000,-1.5432196652770632e-06,-2.012327137105817e-07,7.146991378806073e-09,0.9999999999987892,0.009661755823488468,-0.0017212593674004815,-3.633367151858421e-08,3.429184690191125e-06,-3.248451522525636e-05,10.253157580687352
2,661000000,2.51348876186222e-06,-2.7581373565953953e-07,7.192598161044579e-09,0.9999999999968032,-0.010213270566739508,-0.002128223008004508,5.8782861756192736e-08,5.291205461278852e-06,5.333910778174167e-05,9.865052311239722
2,671000000,-1.543219665250978e-06,-2.012327137848058e-07,7.1962359045759916e-09,0.9999999999987892,0.00966175582349437,-0.001721259367399685,-3.6333671518622416e-08,4.0686084241336605e-06,-3.3794037036112704e-05,9.73494768855581
2,681000000,2.513488761908668e-06,-2.7581373554439716e-07,7.241842686814877e-09,0.9999999999968032,0.0183266865958195,0.0019790609491220235,-1.8558396411265056e-08,5.952750217502582e-06,4.750530052226616e-05,9.246140734529915
2,691000000,-1.5432196652462828e-06,-2.012327138504048e-07,7.245480430348081e-09,0.9999999999987892,0.009661755823468177,-0.0017212593673729315,-3.633367151810916e-08,3.429184689954976e-06,-3.248451522500262e-05,10.253157580685283
2,702000000,-1.5432196652597143e-06,-2.012327139087444e-07,7.275027145810337e-09,0.9999999999987892,-0.010213270566657509,-0.002128223008686145,3.9992268425386965e-08,3.819713520957432e-06,-2.670017389898986e-05,9.865052311349238
2,712000000,2.513488761939849e-06,-2.758137353370222e-07,7.320633928047471e-09,0.9999999999968032,0.009661755823394907,-0.0017212593681274824,-2.3809544563747393e-08,5.52069368515076e-06,4.518965160593812e-05,9.734947688510317
2,722000000,-6.374097482874067e-06,6.593962262256236e-07,7.340172338167368e-09,0.9999999999794682,-0.010213270566795782,-0.002128223008544575,1.8502246349883216e-09,-1.3160586210526045e-05,-0.00012201389853369597,9.865052310624746
2,732000000,7.620123599172249e-06,7.882979172366731e-07,7.344402488834865e-09,0.9999999999706561,0.01832668659570573,0.0019790609501580446,2.3220051017044856e-10,-1.3808662561282777e-05,0.0001389786601208687,9.287703953314292
2,742000000,-6.374097482944607e-06,6.593962259108833e-07,7.389416863935468e-09,0.9999999999794682,-0.017775172516188088,0.0018704199209987247,-1.1743276177971643e-10,-1.29008398469985e-05,-0.00012289811723861799,9.807990723338266
2,752000000,7.620123599176684e-06,7.882979176095831e-07,7.393647014601882e-09,0.9999999999706561,0.01832668659572511,0.001979060950112204,2.322005097717554e-10,-1.5471905150123614e-05,0.00014709658140498935,9.792009274766452
2,762000000,-6.374097483014859e-06,6.593962256042406e-07,7.438661389703798e-09,0.9999999999794682,-0.017775172516241517,0.0018704199210042493,-1.174327618918391e-10,-1.2900839847123102e-05,-0.00012289811723936343,9.807990723338389
2,772000000,7.620123599132267e-06,7.882979179833828e-07,7.442891540368853e-09,0.9999999999706561,0.018326686595723382,0.001979060950112021,2.322005097422379e-10,-1.5471905150096658e-05,0.00014709658140487115,9.792009274766567
2,782000000,-6.374097483006853e-06,6.593962252901189e-07,7.48790591547156e-09,0.9999999999794682,-0.010213270566793987,-0.0021282230085448153,1.8502246344457643e-09,-1.4769605138050872e-05,-0.00012977549532759523,10.426139610514001
2,793000000,2.51348876200999e-06,-2.758137348464779e-07,7.51761203112356e-09,0.9999999999968032,-0.0102132705667504,-0.0021282230080341452,5.878286175618086e-08,5.405949573218822e-06,4.926437969457813e-05,9.79999999987651
2,803000000,7.620123599070252e-06,7.882979185911616e-07,7.521682781597039e-09,0.9999999999706561,0.009661755823516038,-0.0017212593675733363,1.433251474810131e-08,-1.5197448128191575e-05,0.0001446152977654633,9.734947687526086
2,813000000,-6.3740974830890706e-06,6.593962247908457e-07,7.566697156699142e-09,0.9999999999794682,-0.010213270566784068,-0.002128223008545904,1.8502246340564668e-09,-1.3160586210713795e-05,-0.00012201389853498586,9.865052310622572
2,823000000,-1.5432196652105372e-06,-2.0123271436698394e-07,7.570494300422714e-09,0.9999999999987892,-0.017775172516289645,0.0018704199203916718,1.2406684079262073e-08,4.753052709668889e-06,-2.9107531115218406e-05,9.182738970973315
2,833000000,2.5134887620198242e-06,-2.758137346059865e-07,7.616101082657521e-09,0.9999999999968032,-0.010213270566675654,-0.0021282230080168258,5.878286175495479e-08,4.819460658817847e-06,5.2429533798251426e-05,10.30503175084936
2,843000000,-1.5432196651293364e-06,-2.0123271442563451e-07,7.619738826190045e-09,0.9999999999987892,-0.01777517251624392,0.0018704199204108692,1.2406684078002353e-08,4.753052709358193e-06,-2.91075311138469e-05,9.18273897097361
2,853000000,2.513488762015712e-06,-2.7581373447711235e-07,7.665345608424651e-09,0.9999999999968032,-0.010213270566675037,-0.00212822300798603,5.878286175432041e-08,4.819460658706036e-06,5.242953379784227e-05,10.305031750848206
2,863000000,7.62012359896302e-06,7.882979197246674e-07,7.669416358893375e-09,0.9999999999706561,-0.017775172516218646,0.001870419919983981,-5.705006847449506e-08,-1.342014903542999e-05,0.0001391816476133239,9.18273896995605
2,873000000,2.513488762035021e-06,-2.758137343431558e-07,7.714590134191514e-09,0.9999999999968032,-0.010213270566732591,-0.0021282230079743866,5.878286175469037e-08,4.819460658499377e-06,5.242953379799586e-05,10.305031750849285
2,883000000,-1.5432196651374205e-06,-2.0123271458419453e-07,7.718227877722762e-09,0.9999999999987892,0.009661755823472146,-0.0017212593673724284,-3.633367151917306e-08,4.068608424026489e-06,-3.379403703591673e-05,9.73494768855394
2,893000000,2.5134887620441654e-06,-2.758137342216974e-07,7.763834659956174e-09,0.9999999999968032,-0.010213270566689452,-0.002128223007984422,5.8782861753996704e-08,5.291205461231306e-06,5.33391077821802e-05,9.86505231124157
2,903000000,-1.5432196651723648e-06,-2.0123271466500994e-07,7.767472403486653e-09,0.9999999999987892,0.009661755823512854,-0.001721259367397279,-3.633367152000327e-08,4.0686084241041685e-06,-3.379403703679721e-05,9.734947688557234
2,913000000,2.5134887620340874e-06,-2.7581373409470514e-07,7.81307918572001e-09,0.9999999999968032,0.018326686595802742,0.0019790609491442145,-1.855839641026401e-08,5.952750217258254e-06,4.750530052167164e-05,9.246140734527744
2,923000000,-1.5432196651328406e-06,-2.0123271473545153e-07,7.816716929250392e-09,0.9999999999987892,0.009661755823483019,-0.0017212593673709932,-3.633367151945541e-08,3.429184690016442e-06,-3.248451522504297e-05,10.253157580686475
2,933000000,2.5134887620513288e-06,-2.758137339637943e-07,7.862323711484093e-09,0.9999999999968032,-0.010213270566714883,-0.002128223007976373,5.8782861754089e-08,5.291205461020145e-06,5.33391077817876e-05,9.86505231123931
2,943000000,7.620123598771007e-06,7.882979212132173e-07,7.866394461945573e-09,0.9999999999706561,0.009661755823507328,-0.0017212593676046266,1.4332514747394259e-08,-1.5197448128127173e-05,0.00014461529776504733,9.734947687530758
2,953000000,2.5134887620790606e-06,-2.758137338418442e-07,7.911568237248118e-09,0.9999999999968032,-0.010213270566801491,-0.002128223007992392,5.8782861755166265e-08,5.291205461048769e-06,5.333910778211001e-05,9.865052311241602
2,963000000,-1.5432196651071289e-06,-2.0123271488150616e-07,7.915205980778135e-09,0.9999999999987892,0.009661755823496822,-0.001721259367369176,-3.633367151957531e-08,4.06860842391318e-06,-3.3794037036123546e-05,9.73494768855425
2,973000000,2.5134887620936626e-06,-2.758137337149612e-07,7.960812763011496e-09,0.9999999999968032,-0.010213270566798022,-0.0021282230079927526,5.878286175499002e-08,5.291205460979408e-06,5.3339107782126396e-05,9.86505231124211
2,983000000,-1.543219665098894e-06,-2.0123271495142185e-07,7.964450506540582e-09,0.9999999999987892,0.009661755823507317,-0.001721259367367816,-3.6333671519603584e-08,4.068608423794457e-06,-3.379403703615025e-05,9.73494768855405
2,993000000,2.5134887620795494e-06,-2.758137335941359e-07,8.010057288773045e-09,0.9999999999968032,-0.010213270566745742,-0.0021282230079729537,5.878286175382782e-08,5.291205461050619e-06,5.3339107781542845e-05,9.865052311239907
3,3000000,-1.5432196651156195e-06,-2.0123271504341376e-07,8.013695032302538e-09,0.9999999999987892,0.009661755823458677,-0.0017212593673741727,-3.63336715199592e-08,4.068608424094535e-06,-3.3794037036635594e-05,9.734947688556405
3,13000000,2.5134887621133807e-06,-2.7581373348107995e-07,8.059301814534625e-09,0.9999999999968032,-0.010213270566726464,-0.0021282230080059447,5.878286175432662e-08,5.291205461253027e-06,5.33391077819288e-05,9.86505231124048
3,23000000,-1.5432196651058058e-06,-2.012327151238226e-07,8.062939558064289e-09,0.9999999999987892,0.009661755823485337,-0.0017212593674008343,-3.633367152059175e-08,4.068608424178762e-06,-3.379403703664159e-05,9.734947688556442
3,33000000,2.5134887621251934e-06,-2.7581373336193397e-07,8.108546340295694e-09,0.9999999999968032,-0.010213270566727144,-0.002128223008005875,5.878286175428634e-08,5.29120546135285e-06,5.3339107781896315e-05,9.865052311239856
3,43000000,-1.5432196650470776e-06,-2.0123271519228202e-07,8.112184083824994e-09,0.9999999999987892,0.009661755823468064,-0.0017212593673729634,-3.633367151997884e-08,4.068608424042604e-06,-3.379403703566344e-05,9.734947688553623
3,53000000,2.513488762194939e-06,-2.7581373323887544e-07,8.157790866057418e-09,0.9999999999968032,-0.010213270566743931,-0.0021282230080348595,5.8782861754827875e-08,5.291205461347875e-06,5.3339107783033657e-05,9.865052311245517
3,63000000,-1.5432196650393823e-06,-2.012327152631483e-07,8.161428609587631e-09,0.9999999999987892,0.009661755823483418,-0.0017212593673709394,-3.633367152003873e-08,4.068608423951846e-06,-3.379403703572804e-05,9.73494768855196
3,73000000,2.51348876219572e-06,-2.7581373310827725e-07,8.207035391819266e-09,0.9999999999968032,-0.010213270566746792,-0.0021282230080036935,5.878286175417263e-08,5.291205461220248e-06,5.3339107782778334e-05,9.86505231124401
3,83000000,-1.5432196650446043e-06,-2.0123271534451544e-07,8.210673135349214e-09,0.9999999999987892,-0.017775172516265415,0.001870419920413088,1.2406684078442983e-08,4.753052709503338e-06,-2.9107531114476198e-05,9.182738970971277
3,93000000,2.5134887621454214e-06,-2.758137329778346e-07,8.256279917579859e-09,0.9999999999968032,-0.010213270566731528,-0.002128223007974527,5.878286175327385e-08,4.819460658405798e-06,5.242953379714424e-05,10.305031750847782
3,103000000,-1.5432196650390122e-06,-2.0123271543115156e-07,8.259917661108278e-09,0.9999999999987892,0.009661755823480058,-0.0017212593674015555,-3.63336715209743e-08,4.068608424240843e-06,-3.379403703609882e-05,9.734947688556195
3,113000000,-6.374097483573611e-06,6.593962200831632e-07,8.305365043133625e-09,0.9999999999794682,-0.010213270566783405,-0.002128223008545984,1.850224632437418e-09,-1.3160586210733526e-05,-0.00012201389853498261,9.865052310622765
3,123000000,-1.5432196650575605e-06,-2.012327154991051e-07,8.309162186867946e-09,0.9999999999987892,0.009661755823467663,-0.0017212593673729983,-3.633367152062e-08,4.068608424102065e-06,-3.3794037036653524e-05,9.734947688556401
3,133000000,-6.374097483605435e-06,6.593962197681176e-07,8.354609568891788e-09,0.9999999999794682,-0.010213270566782947,-0.0021282230085460144,1.850224632350568e-09,-1.3160586210718682e-05,-0.00012201389853497177,9.865052310622202
3,143000000,-1.5432196650495798e-06,-2.0123271557954369e-07,8.358406712626618e-09,0.9999999999987892,0.009661755823485316,-0.0017212593674008675,-3.6333671521235314e-08,4.068608424179411e-06,-3.379403703668964e-05,9.734947688556444
3,153000000,2.5134887622606696e-06,-2.758137326231928e-07,8.404013494856384e-09,0.9999999999968032,-0.010213270566733358,-0.00212822300803602,5.87828617542971e-08,5.291205461415693e-06,5.3339107782981656e-05,9.865052311242838
3,163000000,-1.5432196649617789e-06,-2.0123271564849365e-07,8.407651238386378e-09,0.9999999999987892,-0.017775172516234727,0.0018704199204099164,1.2406684078278633e-08,4.7530527095180874e-06,-2.9107531113647136e-05,9.182738970971233
3,173000000,2.51348876221382e-06,-2.758137324832439e-07,8.45325802061682e-09,0.9999999999968032,-0.01021327056673436,-0.0021282230080050743,5.878286175330413e-08,4.81946065840447e-06,5.242953379740248e-05,10.305031750847608
3,183000000,-1.5432196649695741e-06,-2.0123271571102025e-07,8.456895764145622e-09,0.9999999999987892,0.009661755823440643,-0.0017212593673463616,-3.633367152000271e-08,4.0686084238005665e-06,-3.379403703548042e-05,9.734947688553124
3,193000000,2.5134887622410176e-06,-2.758137323642416e-07,8.502502546375928e-09,0.9999999999968032,-0.010213270566812652,-0.0021282230080220256,5.878286175441874e-08,5.291205461165184e-06,5.3339107782052996e-05,9.865052311245163
3,203000000,-1.543219665023669e-06,-2.0123271581085525e-07,8.506140289903786e-09,0.9999999999987892,0.00966175582350309,-0.001721259367398532,-3.633367152167906e-08,4.068608424260013e-06,-3.3794037036797195e-05,9.734947688555714
3,213000000,2.5134887622297342e-06,-2.7581373222753917e-07,8.551747072130889e-09,0.9999999999968032,-0.01021327056671319,-0.0021282230079456943,5.8782861752088564e-08,5.29120546095696e-06,5.333910778151749e-05,9.865052311237635
3,223000000,-1.5432196649742023e-06,-2.0123271587025725e-07,8.555384815658769e-09,0.9999999999987892,0.009661755823466766,-0.0017212593673731084,-3.633367152087098e-08,4.068608423920239e-06,-3.379403703596176e-05,9.734947688556115
3,233000000,2.5134887622755807e-06,-2.758137321116138e-07,8.600991597887527e-09,0.9999999999968032,0.01832668659581207,0.0019790609491451895,-1.8558396410227123e-08,5.952750217197181e-06,4.750530052213278e-05,9.246140734530279
3,244000000,7.620123598232091e-06,7.882979268491626e-07,8.605062348326343e-09,0.9999999999706561,0.018326686595730272,0.0019790609501366663,2.3220051017984543e-10,-1.545063808054648e-05,0.00014935442265393673,9.799999998850112
3,254000000,-6.374097483826126e-06,6.593962178871462e-07,8.650076723432474e-09,0.9999999999794682,-0.0177751725162249,0.001870419921002529,-1.1743276190043297e-10,-1.2900839847223904e-05,-0.0001228981172396144,9.807990723337008
3,264000000,7.620123598176737e-06,7.882979272126332e-07,8.654306874080184e-09,0.9999999999706561,0.009661755823477232,-0.00172125936757838,1.433251474560381e-08,-1.719980495640735e-05,0.00015426150337401087,10.344980681830629
3,274000000,-6.374097483797521e-06,6.593962175623e-07,8.699321249186494e-09,0.9999999999794682,-0.017775172516208675,0.0018704199210008484,-1.1743276173520698e-10,-1.1607983121279412e-05,-0.00011646733634361012,9.354106713182627
3,284000000,7.620123598144988e-06,7.882979275992595e-07,8.703551399834998e-09,0.9999999999706561,0.01832668659571778,0.001979060950135373,2.3220051020689344e-10,-1.5471905150273186e-05,0.0001470965814049983,9.792009274766478
3,294000000,-1.5432196649718298e-06,-2.012327161555765e-07,8.73266510837984e-09,0.9999999999987892,0.009661755823484759,-0.0017212593674009547,-3.63336715220036e-08,3.429184690145402e-06,-3.24845152255586e-05,10.253157580686892
3,304000000,7.62012359807831e-06,7.882979279664048e-07,8.752795925588058e-09,0.9999999999706561,0.01832668659571158,0.001979060950134732,2.322005100222283e-10,-1.3725101281707608e-05,0.00014193862943419355,9.246140733553048
3,314000000,-6.374097483849428e-06,6.593962169324817e-07,8.797810300694919e-09,0.9999999999794682,-0.017775172516203284,0.0018704199209763615,-1.1743276158171868e-10,-1.2900839846975864e-05,-0.0001228981172381366,9.807990723338127
3,324000000,7.620123598052006e-06,7.882979283478891e-07,8.802040451341952e-09,0.9999999999706561,0.018326686595710392,0.0019790609501346085,2.3220051020502158e-10,-1.5471905150227792e-05,0.00014709658140468366,9.79200927476682
3,334000000,-6.374097483908278e-06,6.593962166264213e-07,8.847054826448452e-09,0.9999999999794682,-0.010213270566792648,-0.0021282230085449385,1.8502246314236552e-09,-1.4769605138083965e-05,-0.00012977549532780066,10.426139610514237
3,344000000,7.62012359799454e-06,7.882979287202572e-07,8.851284977094451e-09,0.9999999999706561,0.018326686595698416,0.001979060950133368,2.3220051017500444e-10,-1.3808662561282015e-05,0.00013897866012117587,9.287703953315326
3,354000000,-6.374097483985086e-06,6.593962163134829e-07,8.896299352201023e-09,0.9999999999794682,-0.017775172516244143,0.0018704199209805953,-1.1743276162295532e-10,-1.2900839847150297e-05,-0.00012289811723953088,9.80799072333803
3,364000000,7.620123597980331e-06,7.882979290931235e-07,8.900529502845725e-09,0.9999999999706561,0.01832668659571636,0.0019790609501112995,2.3220050992078001e-10,-1.5471905150130936e-05,0.00014709658140481794,9.792009274766325
3,374000000,-6.374097483955119e-06,6.593962159953581e-07,8.945543877952718e-09,0.9999999999794682,-0.017775172516203853,0.0018704199209764213,-1.1743276169956718e-10,-1.290083984705768e-05,-0.00012289811723831427,9.8079907233385
3,384000000,7.620123597938363e-06,7.88297929479265e-07,8.94977402859743e-09,0.9999999999706561,0.01832668659571431,0.001979060950158933,2.3220051048107204e-10,-1.5471905150329897e-05,0.00014709658140474094,9.792009274766388
3,394000000,-6.374097483956574e-06,6.593962156775155e-07,8.99478840370526e-09,0.9999999999794682,-0.01777517251619435,0.001870419920999371,-1.1743276178919223e-10,-1.29008398469874e-05,-0.0001228981172376975,9.807990723338992
3,404000000,7.620123597846407e-06,7.882979298401057e-07,8.999018554349779e-09,0.9999999999706561,0.00966175582350478,-0.0017212593676049679,1.4332514744778237e-08,-1.7199804956444635e-05,0.0001542615033727575,10.344980681833114
3,414000000,-1.5432196648951335e-06,-2.0123271660305224e-07,9.02813226290071e-09,0.9999999999987892,-0.0177751725162736,0.0018704199203900117,1.2406684078821521e-08,4.492847437658253e-06,-2.609024320726462e-05,9.354106713873978
3,424000000,7.620123597864193e-06,7.882979302263258e-07,9.048263080099802e-09,0.9999999999706561,0.009661755823505749,-0.0017212593676048415,1.433251474507437e-08,-1.7199804956654818e-05,0.00015426150337394284,10.344980681831485
3,434000000,-6.374097484090196e-06,6.593962150544391e-07,9.093277455207114e-09,0.9999999999794682,-0.01777517251623657,0.0018704199209798127,-1.1743276157431554e-10,-1.160798312133697e-05,-0.00011646733634419297,9.354106713181439
3,444000000,7.620123597779224e-06,7.882979305924554e-07,9.097507605848928e-09,0.9999999999706561,0.018326686595702527,0.001979060950157711,2.3220051019775819e-10,-1.547190515008189e-05,0.00014709658140388824,9.79200927476704
3,454000000,-6.374097484091027e-06,6.593962147362743e-07,9.142521980956416e-09,0.9999999999794682,-0.010213270566785197,-0.0021282230085457603,1.8502246309222417e-09,-1.4769605137958733e-05,-0.00012977549532754547,10.426139610513882
3,464000000,7.620123597785393e-06,7.882979309738394e-07,9.14675213159893e-09,0.9999999999706561,0.018326686595720055,0.0019790609501595365,2.3220051024896524e-10,-1.3808662561309491e-05,0.0001389786601216449,9.287703953315223
3,474000000,-6.374097484136407e-06,6.593962144273275e-07,9.191766506706902e-09,0.9999999999794682,-0.01777517251622411,0.0018704199210024487,-1.1743276177713364e-10,-1.2900839847093131e-05,-0.00012289811723867949,9.807990723338639
3,484000000,2.513488762417247e-06,-2.758137305497344e-07,9.22147262237717e-09,0.9999999999968032,0.009661755823412641,-0.001721259368125172,-2.380954456789483e-08,4.816623246267084e-06,4.860542572225602e-05,10.344980682881653
3,494000000,-6.374097484160367e-06,6.593962141061142e-07,9.241011032455247e-09,0.9999999999794682,-0.017775172516189857,0.0018704199209749737,-1.1743276142542309e-10,-1.160798312120933e-05,-0.00011646733634365893,9.354106713180414
3,504000000,7.620123597716148e-06,7.882979317183753e-07,9.245241183095707e-09,0.9999999999706561,0.018326686595732347,0.0019790609501129435,2.3220050985503456e-10,-1.547190515010007e-05,0.00014709658140494737,9.79200927476599
3,514000000,-6.374097484220318e-06,6.593962138081202e-07,9.290255558204514e-09,0.9999999999794682,-0.01777517251622927,0.0018704199210029804,-1.1743276200165532e-10,-1.2900839847248285e-05,-0.00012289811723905942,9.807990723337978
3,524000000,7.620123597727942e-06,7.882979321085084e-07,9.294485708844862e-09,0.9999999999706561,0.018326686595746038,0.0019790609501382913,2.3220051027941753e-10,-1.5471905150393682e-05,0.00014709658140597552,9.792009274766366
3,534000000,-6.37409748427772e-06,6.593962134867277e-07,9.339500083954346e-09,0.9999999999794682,-0.010213270566782487,-0.002128223008515218,1.8502246303618748e-09,-1.4769605138063152e-05,-0.00012977549532878837,10.426139610512337
3,544000000,7.620123597564576e-06,7.882979324742128e-07,9.343730234592853e-09,0.9999999999706561,0.018326686595704668,0.00197906095013401,2.3220051042103706e-10,-1.3808662561309955e-05,0.00013897866012046095,9.287703953317903
3,554000000,-1.5432196648136997e-06,-2.0123271713425773e-07,9.372843943151305e-09,0.9999999999987892,0.009661755823456271,-0.0017212593673744758,-3.633367152266649e-08,3.42918468995917e-06,-3.248451522490736e-05,10.253157580684292
3,564000000,7.620123597564629e-06,7.882979328407964e-07,9.392974760339681e-09,0.9999999999706561,0.01832668659568946,0.001979060950132446,2.3220050995141147e-10,-1.3725101281651133e-05,0.00014193862943406076,9.246140733555604
3,574000000,-6.374097484298354e-06,6.593962128504262e-07,9.437989135448434e-09,0.9999999999794682,-0.017775172516212693,0.001870419920977337,-1.1743276137144632e-10,-1.2900839846948354e-05,-0.00012289811723866745,9.807990723337666
3,584000000,7.620123597520995e-06,7.882979332223159e-07,9.442219286085783e-09,0.9999999999706561,0.01832668659572313,0.001979060950135918,2.3220051020544156e-10,-1.547190515015016e-05,0.0001470965814041741,9.792009274767464
3,594000000,-6.374097484350032e-06,6.593962125482715e-07,9.487233661194237e-09,0.9999999999794682,-0.01777517251622493,0.001870419921002536,-1.174327618334929e-10,-1.2900839847172782e-05,-0.00012289811723903012,9.807990723337596
3,604000000,7.62012359748796e-06,7.88297933593033e-07,9.491463811830879e-09,0.9999999999706561,0.01832668659571839,0.001979060950135434,2.3220051001757356e-10,-1.5471905150069028e-05,0.0001470965814042918,9.792009274767402
3,614000000,-6.374097484320582e-06,6.593962122370972e-07,9.536478186940314e-09,0.9999999999794682,-0.01777517251619521,0.0018704199209994567,-1.1743276215559209e-10,-1.290083984722429e-05,-0.00012289811723780126,9.807990723337964
3,624000000,7.6201235974704405e-06,7.882979339793706e-07,9.540708337576576e-09,0.9999999999706561,0.018326686595716294,0.0019790609501591392,2.3220051041725855e-10,-1.5471905150280898e-05,0.00014709658140468984,9.792009274765922
3,634000000,-6.374097484409668e-06,6.593962119161313e-07,9.585722712685281e-09,0.9999999999794682,-0.010213270566766365,-0.0021282230085478576,1.8502246297206268e-09,-1.4769605138063188e-05,-0.0001297754953281658,10.426139610512868
3,644000000,7.620123597410354e-06,7.882979343540774e-07,9.589952863320858e-09,0.9999999999706561,0.018326686595711253,0.0019790609501586193,2.3220051048385116e-10,-1.3808662561359585e-05,0.00013897866012121924,9.287703953316989
3,655000000,7.6201235974028896e-06,7.882979345783056e-07,9.619499578767268e-09,0.9999999999706561,0.018326686595713664,0.0019790609501349424,2.3220051031444796e-10,-1.5450638080532445e-05,0.00014935442265334964,9.799999998849438
3,665000000,2.5134887625192526e-06,-2.7581372943512904e-07,9.664673354104952e-09,0.9999999999968032,-0.010213270566714101,-0.0021282230079764557,5.878286175007545e-08,4.731655471161785e-06,5.555093451818757e-05,10.426139611179526
3,675000000,7.620123597371643e-06,7.882979349514899e-07,9.668744104510568e-09,0.9999999999706561,0.01832668659571433,0.0019790609501110826,2.3220051013795866e-10,-1.3808662561326864e-05,0.00013897866012169626,9.287703953317969
3,685000000,2.5134887625652846e-06,-2.75813729310125e-07,9.713917879849949e-09,0.9999999999968032,-0.010213270566714701,-0.0021282230079763837,5.8782861750056936e-08,4.73165547114373e-06,5.5550934518870615e-05,10.426139611181414
3,695000000,-1.5432196647729447e-06,-2.0123271767631837e-07,9.717555623374462e-09,0.9999999999987892,0.009661755823485356,-0.0017212593674008569,-3.633367152414331e-08,4.068608424184164e-06,-3.3794037036561584e-05,9.734947688557266
3,705000000,2.513488762608739e-06,-2.7581372919512236e-07,9.763162405594325e-09,0.9999999999968032,-0.01021327056677175,-0.002128223008000934,5.878286175073523e-08,5.2912054611628205e-06,5.33391077823919e-05,9.865052311242684
3,715000000,-1.5432196647933091e-06,-2.0123271776075189e-07,9.766800149119293e-09,0.9999999999987892,-0.017775172516332764,0.0018704199203722002,1.2406684080087184e-08,4.753052709789205e-06,-2.9107531115507515e-05,9.182738970969892
3,725000000,2.513488762619948e-06,-2.758137290745108e-07,9.812406931338053e-09,0.9999999999968032,0.018326686595815347,0.00197906094914552,-1.8558396410489395e-08,5.36767645880011e-06,4.708814986562326e-05,9.792009275769761
3,735000000,-1.54321966475318e-06,-2.0123271782632833e-07,9.816044674862029e-09,0.9999999999987892,0.009661755823504358,-0.001721259367398392,-3.633367152437092e-08,3.4291846901191325e-06,-3.2484515225573756e-05,10.253157580687903
3,745000000,2.5134887625986323e-06,-2.758137289404782e-07,9.86165145708068e-09,0.9999999999968032,0.018326686595803655,0.0019790609491443204,-1.8558396409961515e-08,5.9527502171673484e-06,4.750530052170282e-05,9.246140734527595
3,755000000,-1.5432196647137151e-06,-2.0123271789332006e-07,9.86528920060415e-09,0.9999999999987892,0.009661755823497467,-0.0017212593673691038,-3.633367152382591e-08,3.4291846899403124e-06,-3.2484515224935506e-05,10.2531575806863
3,765000000,2.5134887625933756e-06,-2.758137288161544e-07,9.910895982823416e-09,0.9999999999968032,-0.010213270566749677,-0.0021282230079725283,5.878286174965262e-08,5.291205461009146e-06,5.3339107781243076e-05,9.86505231123971
3,775000000,-1.5432196646922284e-06,-2.012327179759496e-07,9.91453372634627e-09,0.9999999999987892,0.009661755823481867,-0.0017212593673711408,-3.6333671523975075e-08,4.068608424113587e-06,-3.379403703574629e-05,9.734947688555437
3,785000000,2.513488762643165e-06,-2.7581372869971894e-07,9.960140508565557e-09,0.9999999999968032,-0.010213270566760168,-0.002128223008002204,5.878286175019032e-08,5.291205461145092e-06,5.333910778197258e-05,9.865052311243103
3,795000000,-1.543219664694839e-06,-2.012327180592661e-07,9.963778252089634e-09,0.9999999999987892,0.009661755823456302,-0.0017212593673744804,-3.633367152418639e-08,4.068608424264928e-06,-3.379403703598872e-05,9.734947688553575
3,805000000,2.5134887626535785e-06,-2.758137285702418e-07,1.0009385034307906e-08,0.9999999999968032,-0.010213270566707415,-0.0021282230079772025,5.878286174946857e-08,5.291205461039806e-06,5.333910778186714e-05,9.865052311240426
3,815000000,-1.5432196647338101e-06,-2.012327181277505e-07,1.0013022777831244e-08,0.9999999999987892,0.00966175582351512,-0.0017212593673969745,-3.6333671524845686e-08,4.068608424099238e-06,-3.379403703696253e-05,9.734947688559512
3,825000000,-6.374097484717109e-06,6.59396208899538e-07,1.0058470159813117e-08,0.9999999999794682,-0.01777517251622409,0.0018704199209785154,-1.1743276142729184e-10,-1.1607983121280532e-05,-0.00011646733634394556,9.354106713178222
3,835000000,-1.543219664649128e-06,-2.0123271819644848e-07,1.0062267303572635e-08,0.9999999999987892,0.009661755823442874,-0.001721259367346058,-3.633367152363075e-08,3.273544181424573e-06,-3.5327714895932365e-05,10.34498068293213
3,845000000,2.5134887626741165e-06,-2.7581372833375677e-07,1.0107874085790365e-08,0.9999999999968032,-0.010213270566664443,-0.002128223007987204,5.878286174881572e-08,5.2912054612529465e-06,5.3339107781706776e-05,9.865052311241815
3,855000000,-1.5432196646785268e-06,-2.0123271827827726e-07,1.0111511829313719e-08,0.9999999999987892,0.009661755823444654,-0.0017212593673759913,-3.633367152434547e-08,4.068608424078098e-06,-3.379403703620533e-05,9.734947688556161
3,865000000,2.513488762698103e-06,-2.758137281953541e-07,1.0157118611530811e-08,0.9999999999968032,-0.010213270566732303,-0.0021282230079744187,5.87828617491561e-08,5.291205460965015e-06,5.3339107781948574e-05,9.865052311241982
3,875000000,-1.543219664646254e-06,-2.0123271835157801e-07,1.0160756355054133e-08,0.9999999999987892,0.009661755823469736,-0.0017212593673727366,-3.6333671524400266e-08,4.068608424033683e-06,-3.379403703579766e-05,9.734947688554666
3,886000000,-6.3740974848175844e-06,6.593962079692313e-07,1.0206203737033016e-08,0.9999999999794682,-0.010213270566790696,-0.002128223008545173,1.8502246282740146e-09,-1.3160586210823294e-05,-0.00012201389853491782,9.865052310624202
3,896000000,7.620123596929404e-06,7.882979390809306e-07,1.0210433887659348e-08,0.9999999999706561,0.01832668659571149,0.0019790609501347156,2.3220051036472418e-10,-1.3808662561329237e-05,0.00013897866012139537,9.28770395331576
3,906000000,-1.5432196646653538e-06,-2.0123271848239346e-07,1.0239547596237025e-08,0.9999999999987892,-0.017775172516282047,0.00187041992041481,1.2406684078988494e-08,3.981242173677402e-06,-2.813570771493827e-05,9.80799072407543
3,916000000,7.620123596946643e-06,7.882979394587339e-07,1.025967841339658e-08,0.9999999999706561,0.018326686595738037,0.001979060950137461,2.3220051024026785e-10,-1.547190515030189e-05,0.0001470965814055731,9.792009274766416
3,926000000,-6.374097484840223e-06,6.593962073327604e-07,1.0304692788509409e-08,0.9999999999794682,-0.01777517251620406,0.0018704199209764432,-1.174327616471483e-10,-1.290083984708063e-05,-0.00012289811723811258,9.807990723338506
3,936000000,2.513488762729709e-06,-2.758137277581511e-07,1.0334398904191843e-08,0.9999999999968032,0.018326686595803842,0.00197906094914433,-1.855839641015415e-08,5.367676458709463e-06,4.708814986491586e-05,9.792009275769269
3,946000000,-6.374097484867148e-06,6.593962070182634e-07,1.0353937314246362e-08,0.9999999999794682,-0.017775172516187397,0.0018704199210225754,-1.1743276188079043e-10,-1.2900839847057032e-05,-0.00012289811723796402,9.807990723338213
3,956000000,7.620123596858024e-06,7.882979402175296e-07,1.035816746487209e-08,0.9999999999706561,0.018326686595717963,0.0019790609501593175,2.3220051066656616e-10,-1.5471905150464324e-05,0.0001470965814053414,9.792009274766166
3,966000000,-6.374097484944813e-06,6.593962067135283e-07,1.0403181839984072e-08,0.9999999999794682,-0.017775172516220867,0.0018704199210021113,-1.1743276191333836e-10,-1.290083984725e-05,-0.00012289811723889703,9.807990723338659
3,976000000,7.620123596793869e-06,7.882979405776773e-07,1.0407411990607999e-08,0.9999999999706561,0.018326686595724465,0.00197906095011213,2.3220051006876563e-10,-1.5471905150173338e-05,0.00014709658140483873,9.792009274766249
3,986000000,-6.374097484967489e-06,6.593962063868296e-07,1.0452426365720734e-08,0.9999999999794682,-0.017775172516212506,0.001870419920977314,-1.1743276137062684e-10,-1.2900839846992825e-05,-0.00012289811723868504,9.807990723338493
3,996000000,7.620123596727806e-06,7.882979409534659e-07,1.045665651634356e-08,0.9999999999706561,0.0183266865957147,0.0019790609501350517,2.322005102705278e-10,-1.547190515016782e-05,0.00014709658140429584,9.792009274766892
4,6000000,-1.5432196646193506e-06,-2.0123271885132322e-07,1.0485770224926868e-08,0.9999999999987892,-0.01777517251628214,0.0018704199204148246,1.2406684078629587e-08,3.981242173459016e-06,-2.8135707714993516e-05,9.807990724075475
4,16000000,7.620123596696639e-06,7.882979413352618e-07,1.0505901042078572e-08,0.9999999999706561,0.018326686595714188,0.001979060950158924,2.3220051055799583e-10,-1.5471905150296713e-05,0.00014709658140445135,9.792009274767079
4,26000000,-6.374097484986528e-06,6.593962057668784e-07,1.055091541719086e-08,0.999999999979468,-0.017775172516191973,0.0018704199209991189,-1.1743276193259024e-10,-1.2900839847153257e-05,-0.0001228981172377508,9.807990723338335
4,36000000,7.620123596610075e-06,7.882979417090324e-07,1.0555145567813536e-08,0.9999999999706561,0.018326686595680226,0.001979060950155408,2.322005106927051e-10,-1.547190515026802e-05,0.00014709658140348367,9.792009274767093
4,46000000,-6.374097485052892e-06,6.593962054510445e-07,1.0600159942926396e-08,0.999999999979468,-0.01777517251620576,0.0018704199210005498,-1.174327617327798e-10,-1.2900839847116826e-05,-0.0001228981172384014,9.807990723337635
4,57000000,2.513488762821163e-06,-2.758137270157871e-07,1.0629866058612427e-08,0.999999999996803,0.01832668659580902,0.0019790609491687986,-1.8558396409874873e-08,5.367676458714889e-06,4.708814986511451e-05,9.792009275769216
4,67000000,7.620123596593963e-06,7.882979423013503e-07,1.0633936808987277e-08,0.9999999999706561,0.01832668659569909,0.0019790609501334337,2.3220051014644298e-10,-1.5450638080393257e-05,0.0001493544226531665,9.799999998849037
4,77000000,2.5134887628208794e-06,-2.7581372688907225e-07,1.067911058434611e-08,0.999999999996803,-0.010213270566726211,-0.002128223007975101,5.8782861748027795e-08,4.73165547121699e-06,5.5550934518576e-05,10.426139611181405
4,87000000,-1.5432196646106524e-06,-2.012327191740975e-07,1.0682748327867058e-08,0.999999999998789,0.00966175582351957,-0.0017212593674265524,-3.633367152694887e-08,4.068608424352337e-06,-3.379403703716094e-05,9.73494768856002
4,97000000,-6.3740974851431305e-06,6.593962046397017e-07,1.0728195709832026e-08,0.999999999979468,-0.010213270566802672,-0.0021282230085438378,1.8502246272837182e-09,-1.316058621076397e-05,-0.00012201389853449801,9.865052310621365
4,107000000,-1.5432196645707673e-06,-2.0123271924121386e-07,1.0731992853600385e-08,0.999999999998789,0.009661755823484762,-0.0017212593674009343,-3.633367152632492e-08,4.068608424199659e-06,-3.3794037036557715e-05,9.734947688554657
4,117000000,-6.374097485124576e-06,6.593962043115046e-07,1.0777440235564568e-08,0.999999999979468,-0.010213270566791314,-0.0021282230085759536,1.8502246274376058e-09,-1.3160586210507207e-05,-0.00012201389853355425,9.8650523106251
4,127000000,-1.5432196645574706e-06,-2.0123271931227357e-07,1.0781237379334797e-08,0.999999999998789,0.009661755823484221,-0.0017212593673708568,-3.6333671525956245e-08,4.068608424119805e-06,-3.3794037036504304e-05,9.734947688554595
4,137000000,2.5134887628333053e-06,-2.758137265050744e-07,1.0826844161545958e-08,0.999999999996803,0.018326686595781697,0.0019790609491181165,-1.8558396409735377e-08,5.952750216978358e-06,4.750530052113209e-05,9.246140734527621
4,147000000,-1.5432196645101096e-06,-2.0123271938936553e-07,1.083048190506657e-08,0.999999999998789,0.009661755823493707,-0.0017212593673696138,-3.6333671525988214e-08,3.4291846900800364e-06,-3.248451522474647e-05,10.25315758068571
4,157000000,-6.3740974852511704e-06,6.593962036889246e-07,1.087592928702927e-08,0.999999999979468,-0.010213270566849175,-0.0021282230085025756,1.8502246280234027e-09,-1.316058621061281e-05,-0.0001220138985347789,9.865052310625524
4,167000000,-1.543219664520828e-06,-2.012327194517187e-07,1.0879726430800531e-08,0.999999999998789,-0.01777517251626931,0.0018704199203895674,1.2406684078665945e-08,4.753052709332323e-06,-2.9107531114533867e-05,9.182738970971128
4,178000000,-6.374097485239369e-06,6.593962033765541e-07,1.0925173812760973e-08,0.999999999979468,-0.01021327056672343,-0.002128223008557853,1.8502246262894903e-09,-1.445527738022161e-05,-0.00013074418294259767,10.305031750144167
4,188000000,7.6201235964038845e-06,7.882979445546192e-07,1.092940396337887e-08,0.9999999999706561,0.018326686595722792,0.0019790609501358883,2.3220051005923756e-10,-1.3808662561229443e-05,0.00013897866012222177,9.287703953315384
4,198000000,-1.5432196644767365e-06,-2.01232719584741e-07,1.0958517671973136e-08,0.999999999998789,0.009661755823481602,-0.0017212593673712015,-3.6333671526163973e-08,3.429184690030853e-06,-3.248451522461328e-05,10.253157580685468
4,208000000,7.6201235962944e-06,7.882979449395907e-07,1.0978648489110906e-08,0.9999999999706561,0.018326686595690894,0.001979060950132593,2.3220051069622575e-10,-1.3725101281935634e-05,0.00014193862943369764,9.24614073355521
4,218000000,-6.374097485380714e-06,6.59396202751844e-07,1.1023662864224807e-08,0.999999999979468,-0.01777517251624201,0.0018704199209803696,-1.174327614039135e-10,-1.2900839847124258e-05,-0.00012289811723937847,9.807990723337953
4,228000000,7.6201235963111395e-06,7.882979453011199e-07,1.102789301483962e-08,0.9999999999706561,0.00966175582348834,-0.0017212593675769452,1.433251474049406e-08,-1.7199804956430653e-05,0.000154261503374049,10.344980681830306
4,238000000,-1.5432196644534922e-06,-2.012327197254393e-07,1.1057006723435646e-08,0.999999999998789,0.009661755823470343,-0.0017212593673424782,-3.633367152575432e-08,3.944160972264422e-06,-3.0247105466891402e-05,9.799999999951659
4,248000000,7.6201235962180235e-06,7.882979456771935e-07,1.107713754056986e-08,0.9999999999706561,0.018326686595688833,0.0019790609501084454,2.3220051015006406e-10,-1.3725101281717384e-05,0.0001419386294337406,9.246140733555826
4,258000000,-6.374097485429837e-06,6.593962021322421e-07,1.1122151915684278e-08,0.999999999979468,-0.01777517251622517,0.0018704199210025565,-1.17432761863548e-10,-1.2900839847268285e-05,-0.00012289811723908,9.807990723338099
4,268000000,7.620123596234225e-06,7.882979460602461e-07,1.1126382066298171e-08,0.9999999999706561,0.01832668659573937,0.0019790609501375966,2.3220051029914313e-10,-1.547190515024077e-05,0.00014709658140498052,9.792009274767096
4,278000000,-6.374097485431375e-06,6.593962018119544e-07,1.1171396441413473e-08,0.999999999979468,-0.017775172516183928,0.0018704199209982901,-1.1743276174771134e-10,-1.2900839847151402e-05,-0.00012289811723848,9.807990723338438
4,288000000,7.620123596120294e-06,7.882979464310025e-07,1.1175626592027369e-08,0.9999999999706561,0.018326686595685877,0.0019790609501320654,2.3220051042989515e-10,-1.547190515014947e-05,0.0001470965814034858,9.792009274766581
4,298000000,-6.3740974854822326e-06,6.593962015065791e-07,1.1220640967141128e-08,0.999999999979468,-0.017775172516183366,0.0018704199210221595,-1.1743276209591467e-10,-1.2900839847312436e-05,-0.0001228981172388199,9.807990723337975
4,308000000,2.513488763003542e-06,-2.7581372546536974e-07,1.1250347082833949e-08,0.999999999996803,-0.010213270566739045,-0.0021282230080045456,5.8782861747478236e-08,4.819460658612939e-06,5.242953379765684e-05,10.305031750849238
4,318000000,-1.5432196644623335e-06,-2.012327200392704e-07,1.1253984826354258e-08,0.999999999998789,-0.01777517251629157,0.0018704199203918655,1.2406684079133823e-08,4.753052709523564e-06,-2.910753111479574e-05,9.182738970972697
4,328000000,7.620123596127832e-06,7.882979471911505e-07,1.1274115643481529e-08,0.9999999999706561,0.00966175582347713,-0.0017212593675482316,1.4332514740114027e-08,-1.7199804956704593e-05,0.00015426150337424877,10.344980681829247
4,338000000,-6.374097485588139e-06,6.593962008687285e-07,1.1319130018596281e-08,0.999999999979468,-0.017775172516213116,0.001870419920977383,-1.174327613377458e-10,-1.1607983121398207e-05,-0.0001164673363447808,9.354106713182563
4,348000000,2.5134887630058095e-06,-2.7581372520432795e-07,1.1348836134289679e-08,0.999999999996803,0.018326686595801146,0.0019790609491201266,-1.8558396410252117e-08,5.367676458627355e-06,4.708814986489042e-05,9.792009275769129
4,358000000,-6.374097485575096e-06,6.593962005570338e-07,1.1368374544321892e-08,0.999999999979468,-0.017775172516191744,0.0018704199209990961,-1.1743276170008401e-10,-1.2900839847156623e-05,-0.00012289811723876227,9.807990723338806
4,368000000,7.620123596025714e-06,7.882979479351769e-07,1.137260469493256e-08,0.9999999999706561,0.01832668659571048,0.001979060950158543,2.322005103914181e-10,-1.5471905150206518e-05,0.0001470965814047011,9.792009274765952
4,378000000,-1.5432196644344695e-06,-2.012327202766427e-07,1.140171840353568e-08,0.999999999998789,-0.017775172516282443,0.0018704199204148514,1.2406684079129297e-08,3.9812421736834545e-06,-2.8135707715002034e-05,9.807990724075792
4,388000000,7.620123595981422e-06,7.882979483124616e-07,1.1421849220658064e-08,0.9999999999706561,0.018326686595713664,0.001979060950134951,2.322005104180893e-10,-1.5471905150254758e-05,0.00014709658140458535,9.792009274766775
4,398000000,-6.374097485654949e-06,6.593961999296844e-07,1.1466863595774089e-08,0.999999999979468,-0.017775172516224156,0.001870419921002455,-1.1743276165165261e-10,-1.2900839847171959e-05,-0.0001228981172390433,9.807990723338166
4,408000000,7.620123595924872e-06,7.882979486894563e-07,1.1471093746383239e-08,0.9999999999706561,0.01832668659571087,0.0019790609501585755,2.3220051062730933e-10,-1.547190515028079e-05,0.00014709658140424787,9.792009274767116
4,418000000,-6.3740974856379985e-06,6.593961996031462e-07,1.1516108121498667e-08,0.999999999979468,-0.0177751725161741,0.001870419920997271,-1.1743276138156827e-10,-1.2900839846931356e-05,-0.0001228981172380673,9.807990723338548
4,429000000,2.513488763110773e-06,-2.7581372471735537e-07,1.1545814237196515e-08,0.999999999996803,-0.0102132705667453,-0.0021282230080038158,5.8782861746847746e-08,4.819460658502068e-06,5.242953379816805e-05,10.305031750849945
4,439000000,-1.5432196643955289e-06,-2.012327205007328e-07,1.1549451980715586e-08,0.999999999998789,-0.017775172516259916,0.0018704199204364483,1.2406684078602024e-08,4.7530527096485136e-06,-2.9107531114659794e-05,9.182738970971691
4,449000000,-6.374097485714974e-06,6.593961991101298e-07,1.1594899362659954e-08,0.999999999979468,-0.01777517251621336,0.0018704199210013365,-1.1743276160888314e-10,-1.2924166950939957e-05,-0.00012493231056756823,9.799999999194757
4,459000000,7.620123595858282e-06,7.882979496672321e-07,1.1599129513267628e-08,0.9999999999706561,0.009661755823489807,-0.0017212593675767535,1.4332514739506418e-08,-1.7199804956714446e-05,0.0001542615033739687,10.34498068183024
4,469000000,2.513488763117596e-06,-2.7581372447298075e-07,1.1644303288647503e-08,0.999999999996803,-0.0102132705667322,-0.0021282230080053055,5.878286174659774e-08,5.291205461239961e-06,5.3339107782064536e-05,9.865052311241925
4,479000000,-1.5432196643481755e-06,-2.0123272065091597e-07,1.1647941032166042e-08,0.999999999998789,-0.017775172516260398,0.0018704199204125729,1.2406684078796358e-08,4.753052709609077e-06,-2.9107531114120366e-05,9.18273897097344
4,489000000,-6.37409748580595e-06,6.593961984879616e-07,1.1693388414108233e-08,0.999999999979468,-0.010213270566783589,-0.0021282230085459364,1.8502246250232585e-09,-1.445527738041224e-05,-0.00013074418294386385,10.305031750143007
4,499000000,-1.5432196643228856e-06,-2.0123272072158065e-07,1.1697185557889823e-08,0.999999999998789,0.009661755823469101,-0.0017212593673728235,-3.63336715276455e-08,4.068608424048385e-06,-3.379403703542934e-05,9.734947688553609
4,509000000,2.5134887631061508e-06,-2.7581372422878613e-07,1.1742792340095203e-08,0.999999999996803,-0.010213270566658224,-0.0021282230079878958,5.878286174523116e-08,5.291205461319178e-06,5.333910778124876e-05,9.86505231124059
4,519000000,-1.5432196643398492e-06,-2.012327208010657e-07,1.1746430083612999e-08,0.999999999998789,0.00966175582346617,-0.0017212593673732062,-3.6333671527899034e-08,4.068608424102031e-06,-3.379403703593767e-05,9.73494768855715
4,529000000,2.5134887631426757e-06,-2.758137240968867e-07,1.1792036865818357e-08,0.999999999996803,0.018326686595804685,0.001979060949168348,-1.855839640989254e-08,5.952750217321349e-06,4.750530052196955e-05,9.246140734529964
4,539000000,-1.543219664341999e-06,-2.0123272087880383e-07,1.1795674609335645e-08,0.999999999998789,-0.017775172516281,0.0018704199204146988,1.2406684078907366e-08,3.98124217356805e-06,-2.8135707714755456e-05,9.807990724075765
4,549000000,2.5134887631750594e-06,-2.7581372397834834e-07,1.1841281391540714e-08,0.999999999996803,-0.01021327056673305,-0.002128223008005203,5.8782861746173237e-08,4.819460658574352e-06,5.242953379779564e-05,10.305031750849501
4,559000000,-1.5432196643144196e-06,-2.0123272095767276e-07,1.1844919135058123e-08,0.999999999998789,0.009661755823473775,-0.0017212593674023724,-3.633367152856557e-08,4.0686084242001305e-06,-3.3794037035858696e-05,9.734947688553929
4,569000000,2.513488763166562e-06,-2.7581372385335667e-07,1.1890525917262361e-08,0.999999999996803,-0.010213270566652211,-0.0021282230079885294,5.878286174489239e-08,5.291205461243529e-06,5.333910778164538e-05,9.865052311239747
4,579000000,-1.5432196643118937e-06,-2.0123272101878852e-07,1.1894163660780583e-08,0.999999999998789,0.009661755823479055,-0.001721259367341341,-3.633367152769999e-08,4.068608423914158e-06,-3.3794037035981556e-05,9.734947688557273
4,589000000,2.513488763210716e-06,-2.758137237148437e-07,1.1939770442984334e-08,0.999999999996803,-0.010213270566743784,-0.002128223007973168,5.8782861745370766e-08,5.291205460927511e-06,5.333910778229351e-05,9.865052311241914
4,599000000,-1.5432196643154351e-06,-2.012327211141117e-07,1.1943408186501925e-08,0.999999999998789,0.00966175582349698,-0.0017212593673993511,-3.633367152899732e-08,4.068608424282213e-06,-3.37940370362743e-05,9.734947688555437
4,609000000,2.513488763195006e-06,-2.7581372360148083e-07,1.1989014968705827e-08,0.999999999996803,-0.0102132705667266,-0.0021282230080059247,5.878286174567673e-08,5.291205461143386e-06,5.3339107781692234e-05,9.865052311239337
4,619000000,-1.543219664263158e-06,-2.0123272117696557e-07,1.1992652712222618e-08,0.999999999998789,-0.017775172516227032,0.001870419920409121,1.2406684078533586e-08,4.753052709506663e-06,-2.9107531113805694e-05,9.182738970974667
4,629000000,2.513488763196415e-06,-2.758137234686646e-07,1.203825949442499e-08,0.999999999996803,0.01832668659578557,0.0019790609491185138,-1.8558396410097007e-08,5.367676458563782e-06,4.70881498648443e-05,9.792009275768407
4,639000000,-1.543219664312618e-06,-2.0123272126122206e-07,1.2041897237941921e-08,0.999999999998789,-0.017775172516289323,0.0018704199203916313,1.2406684079449128e-08,3.981242173618758e-06,-2.8135707715120178e-05,9.80799072407498
4,649000000,2.5134887631958634e-06,-2.7581372335340585e-07,1.2087504020144711e-08,0.999999999996803,-0.010213270566716545,-0.002128223008007036,5.8782861745323504e-08,4.819460658453514e-06,5.2429533796788105e-05,10.305031750847588
4,659000000,-1.543219664252166e-06,-2.0123272132843825e-07,1.2091141763661009e-08,0.999999999998789,0.009661755823481414,-0.0017212593673711903,-3.6333671528537624e-08,4.068608424033139e-06,-3.379403703558815e-05,9.734947688556057
4,669000000,2.5134887632601168e-06,-2.7581372323490266e-07,1.213674854586469e-08,0.999999999996803,-0.010213270566738129,-0.002128223008004651,5.878286174555364e-08,5.29120546122542e-06,5.333910778218005e-05,9.865052311242719
4,679000000,7.620123595403248e-06,7.882979537834697e-07,1.2140819296192995e-08,0.9999999999706561,-0.017775172516240237,0.0018704199200101448,-5.705006847433563e-08,-1.342014903506039e-05,0.00013918164761297843,9.182738969955144
4,689000000,2.513488763292238e-06,-2.7581372311028156e-07,1.218599307158524e-08,0.999999999996803,-0.010213270566807223,-0.0021282230080226024,5.878286174655258e-08,4.8194606585214915e-06,5.2429533798258155e-05,10.305031750851404
4,699000000,-1.543219664286143e-06,-2.012327214925907e-07,1.2189630815101929e-08,0.999999999998789,0.009661755823498935,-0.0017212593673990781,-3.633367152957348e-08,4.068608424277172e-06,-3.379403703668459e-05,9.734947688554309
4,709000000,2.51348876330076e-06,-2.758137229883178e-07,1.2235237597303318e-08,0.999999999996803,-0.010213270566730213,-0.0021282230080055106,5.878286174537167e-08,5.291205461251165e-06,5.333910778245371e-05,9.8650523112407
4,719000000,7.620123595347124e-06,7.882979545393572e-07,1.2239308347628906e-08,0.9999999999706561,0.009661755823530188,-0.001721259367601648,1.4332514738041008e-08,-1.5197448128111335e-05,0.00014461529776565795,9.73494768752827
4,729000000,2.5134887632845605e-06,-2.75813722851789e-07,1.2284482123022032e-08,0.999999999996803,-0.010213270566733058,-0.002128223007974368,5.878286174457063e-08,5.29120546100666e-06,5.333910778184726e-05,9.86505231123981
4,739000000,-1.5432196642370067e-06,-2.01232721636734e-07,1.228811986653859e-08,0.999999999998789,0.009661755823464364,-0.0017212593673734445,-3.633367152907779e-08,4.0686084241150215e-06,-3.379403703605432e-05,9.734947688554753
4,749000000,2.5134887632997054e-06,-2.7581372273272583e-07,1.2333726648740122e-08,0.999999999996803,-0.010213270566757688,-0.0021282230080024883,5.8782861744977696e-08,5.291205461080729e-06,5.333910778188296e-05,9.865052311242886
4,759000000,-1.5432196642047288e-06,-2.0123272171291773e-07,1.233736439225678e-08,0.999999999998789,-0.017775172516258358,0.0018704199204123556,1.240668407876921e-08,4.753052709589368e-06,-2.9107531113977868e-05,9.182738970972341
4,769000000,2.513488763306071e-06,-2.7581372260735426e-07,1.2382971174458343e-08,0.999999999996803,-0.010213270566754086,-0.0021282230080028938,5.8782861744820214e-08,4.81946065836726e-06,5.242953379735772e-05,10.305031750848924
4,779000000,-1.543219664258075e-06,-2.0123272179565347e-07,1.2386608917973817e-08,0.999999999998789,0.00966175582348472,-0.0017212593674009486,-3.6333671529978176e-08,4.068608424249147e-06,-3.3794037036879906e-05,9.734947688556852
4,789000000,2.5134887633484776e-06,-2.7581372249198456e-07,1.2432215700173901e-08,0.999999999996803,-0.010213270566743869,-0.00212822300800402,5.878286174494518e-08,5.291205461222734e-06,5.3339107782312466e-05,9.8650523112403
4,799000000,-1.543219664175872e-06,-2.01232721865307e-07,1.2435853443690263e-08,0.999999999998789,0.009661755823499605,-0.0017212593673688306,-3.6333671529402306e-08,4.0686084241364345e-06,-3.3794037035454316e-05,9.734947688553413
4,809000000,2.513488763315959e-06,-2.75813722362084e-07,1.2481460225890787e-08,0.999999999996803,-0.01021327056672371,-0.0021282230079753624,5.878286174413223e-08,5.291205461100271e-06,5.3339107781371554e-05,9.865052311240115
4,819000000,-1.5432196641839333e-06,-2.012327219484869e-07,1.2485097969405521e-08,0.999999999998789,0.0096617558234842,-0.0017212593674009909,-3.633367153002793e-08,4.068608424260129e-06,-3.379403703579043e-05,9.734947688556025
4,829000000,2.5134887633523477e-06,-2.758137222269111e-07,1.2530704751605692e-08,0.999999999996803,-0.010213270566734642,-0.0021282230079741624,5.8782861743921856e-08,5.291205460882196e-06,5.3339107781833424e-05,9.865052311241516
4,839000000,-1.5432196642065508e-06,-2.0123272202775585e-07,1.2534342495120629e-08,0.999999999998789,0.009661755823485793,-0.0017212593674008037,-3.6333671530307844e-08,4.068608424325693e-06,-3.379403703643458e-05,9.73494768855616
4,849000000,2.5134887633555333e-06,-2.758137221043465e-07,1.2579949277319938e-08,0.999999999996803,-0.010213270566709585,-0.0021282230079769497,5.878286174372998e-08,5.291205460906591e-06,5.3339107781604936e-05,9.865052311239126
4,859000000,-1.5432196641529547e-06,-2.0123272209151213e-07,1.2583587020835088e-08,0.999999999998789,0.009661755823462667,-0.0017212593673736408,-3.633367152960759e-08,4.068608424097264e-06,-3.379403703554208e-05,9.734947688554438
4,869000000,2.5134887633771733e-06,-2.7581372198591785e-07,1.2629193803034447e-08,0.999999999996803,-0.010213270566726527,-0.002128223007975084,5.878286174380184e-08,5.291205460999748e-06,5.333910778177166e-05,9.865052311243014
4,879000000,-1.5432196641787266e-06,-2.0123272217618175e-07,1.2632831546549775e-08,0.999999999998789,0.009661755823485831,-0.0017212593674007942,-3.633367153042544e-08,4.068608424257735e-06,-3.3794037036272495e-05,9.734947688556042
4,889000000,2.513488763381798e-06,-2.758137218667831e-07,1.2678438328748695e-08,0.999999999996803,-0.010213270566726596,-0.0021282230080059304,5.878286174412067e-08,5.291205461093905e-06,5.333910778159717e-05,9.86505231123987
4,899000000,7.620123595013587e-06,7.882979579203399e-07,1.2682509079059283e-08,0.9999999999706561,0.009661755823497127,-0.0017212593675758044,1.4332514737126732e-08,-1.5197448128166818e-05,0.00014461529776601655,9.73494768752839
4,909000000,-6.374097486468113e-06,6.593961918900777e-07,1.2727523454179985e-08,0.999999999979468,-0.010213270566795017,-0.0021282230085446787,1.8502246229563546e-09,-1.3160586210713267e-05,-0.00012201389853480828,9.865052310624922
4,919000000,-1.5432196641679625e-06,-2.0123272233082572e-07,1.2731320597976668e-08,0.999999999998789,0.009661755823471669,-0.0017212593674026469,-3.6333671530675794e-08,4.068608424318071e-06,-3.379403703644502e-05,9.734947688555428
4,929000000,2.513488763414756e-06,-2.758137216094981e-07,1.2776927380174647e-08,0.999999999996803,-0.010213270566750358,-0.0021282230079724446,5.878286174344419e-08,5.291205460906525e-06,5.333910778171238e-05,9.865052311240415
4,939000000,-1.5432196641147637e-06,-2.0123272239446807e-07,1.2780565123688892e-08,0.999999999998789,0.009661755823482592,-0.0017212593673710456,-3.63336715300726e-08,4.0686084240809064e-06,-3.379403703558778e-05,9.73494768855405
4,949000000,2.5134887634525203e-06,-2.75813721507513e-07,1.2826171905887981e-08,0.999999999996803,-0.010213270566736949,-0.0021282230080356583,5.8782861744530807e-08,5.291205461312713e-06,5.3339107782199126e-05,9.86505231124305
4,959000000,-1.5432196641240472e-06,-2.0123272246830414e-07,1.282980964940337e-08,0.999999999998789,0.009661755823465205,-0.001721259367373327,-3.633367153015204e-08,4.0686084240551905e-06,-3.3794037035955766e-05,9.734947688553511
4,969000000,2.513488763427897e-06,-2.7581372136444914e-07,1.2875416431600584e-08,0.999999999996803,-0.010213270566733403,-0.00212822300797433,5.878286174316481e-08,5.291205460944702e-06,5.333910778141266e-05,9.86505231124087
4,979000000,7.620123594787697e-06,7.882979594192314e-07,1.2879487181905464e-08,0.9999999999706561,-0.017775172516258653,0.0018704199199881197,-5.705006847366405e-08,-1.3420149035196009e-05,0.00013918164761242077,9.182738969956295
4,989000000,2.513488763459063e-06,-2.7581372126186964e-07,1.2924660957310708e-08,0.999999999996803,-0.010213270566662899,-0.0021282230080182343,5.878286174320553e-08,4.819460658707238e-06,5.2429533797408255e-05,10.305031750848448
4,999000000,7.620123594754471e-06,7.882979597866957e-07,1.2928731707613579e-08,0.9999999999706561,-0.017775172516254475,0.0018704199200116156,-5.705006847417963e-08,-1.3420149035041908e-05,0.00013918164761259782,9.1827389699576
5,9000000,2.5134887634750556e-06,-2.758137211276577e-07,1.2973905483020696e-08,0.999999999996803,-0.01021327056674269,-0.002128223008004127,5.878286174359643e-08,4.819460658474489e-06,5.242953379745995e-05,10.305031750848988
5,19000000,-1.5432196640814296e-06,-2.0123272270500782e-07,1.2977543226534997e-08,0.999999999998789,0.009661755823469786,-0.0017212593673727266,-3.633367153060676e-08,4.068608424219926e-06,-3.379403703569907e-05,9.734947688553824
5,29000000,2.513488763473286e-06,-2.7581372099599584e-07,1.3023150008730645e-08,0.999999999996803,-0.010213270566719168,-0.0021282230079759015,5.8782861742875995e-08,5.291205461000205e-06,5.3339107781489285e-05,9.865052311240449
5,40000000,2.513488763512791e-06,-2.7581372092685265e-07,1.3052696724156227e-08,0.999999999996803,0.009661755823366699,-0.001721259368100997,-2.3809544575859723e-08,5.520693685213795e-06,4.518965160608073e-05,9.734947688508406
5,50000000,-6.374097486727652e-06,6.593961896921546e-07,1.3072235134152782e-08,0.999999999979468,-0.010213270566735273,-0.002128223008556561,1.8502246213579214e-09,-1.316058621069561e-05,-0.00012201389853546864,9.865052310622708
5,60000000,7.62012359471018e-06,7.882979609271384e-07,1.3076465284739593e-08,0.9999999999706561,0.009661755823477251,-0.0017212593675482069,1.4332514736271775e-08,-1.5197448128251831e-05,0.0001446152977662209,9.734947687529106
5,70000000,-6.374097486724046e-06,6.593961893733919e-07,1.312147965986152e-08,0.999999999979468,-0.017775172516210913,0.001870419920977156,-1.1743276112452495e-10,-1.1607983121265257e-05,-0.00011646733634374487,9.354106713182594
5,80000000,2.513488763573242e-06,-2.758137206949818e-07,1.3151185775575627e-08,0.999999999996803,-0.01777517251615449,0.0018704199213491926,-1.1743033226965813e-10,5.405949573434803e-06,4.926437969478962e-05,9.799999999874563
5,90000000,-1.543219664032317e-06,-2.0123272297138952e-07,1.3154823519090087e-08,0.999999999998789,-0.01777517251625103,0.0018704199204116084,1.2406684078698129e-08,3.9441609722765314e-06,-3.0247105466860495e-05,9.79999999995308
5,100000000,7.620123594605766e-06,7.882979616730128e-07,1.3174954336156338e-08,0.9999999999706561,0.018326686595714847,0.0019790609501350634,2.3220051054963836e-10,-1.547190515028495e-05,0.00014709658140468543,9.792009274766297
5,110000000,-1.543219664082358e-06,-2.012327230578955e-07,1.3204068044799368e-08,0.999999999998789,-0.017775172516300525,0.001870419920392793,1.2406684079685877e-08,3.9812421736740295e-06,-2.813570771520281e-05,9.80799072407559
5,120000000,7.620123594546373e-06,7.882979620479886e-07,1.3224198861863275e-08,0.9999999999706561,0.018326686595709657,0.001979060950158459,2.3220051069800106e-10,-1.547190515026213e-05,0.00014709658140431018,9.792009274767027
5,130000000,-6.374097486840933e-06,6.593961884479393e-07,1.3269213236985162e-08,0.999999999979468,-0.017775172516223296,0.001870419921002356,-1.1743276173531188e-10,-1.2900839847313397e-05,-0.00012289811723898892,9.80799072333781
5,140000000,7.620123594593268e-06,7.882979624275646e-07,1.327344338756936e-08,0.9999999999706561,0.01832668659574556,0.0019790609501382514,2.3220051044970256e-10,-1.5471905150363534e-05,0.00014709658140601149,9.792009274766283
5,150000000,-6.37409748689907e-06,6.593961881276093e-07,1.3318457762692622e-08,0.999999999979468,-0.01777517251623958,0.0018704199209801273,-1.174327612875673e-10,-1.2900839847185007e-05,-0.00012289811723952478,9.807990723338097
5,160000000,7.6201235944314065e-06,7.882979627845148e-07,1.3322687913274946e-08,0.9999999999706561,0.009661755823545838,-0.0017212593675996267,1.4332514735252582e-08,-1.71998049563865e-05,0.00015426150337259414,10.344980681835855
5,171000000,7.620123594529642e-06,7.882979630306741e-07,1.3352234628697795e-08,0.9999999999706561,-0.017775172516171056,0.001870419920026912,-5.705006847567337e-08,-1.4019501545689231e-05,0.00014533953842892956,9.354106712771811
5,181000000,2.5134887635787418e-06,-2.7581372005933506e-07,1.3397408404114466e-08,0.999999999996803,-0.010213270566727982,-0.002128223008005783,5.878286174253987e-08,4.819460658379094e-06,5.242953379713111e-05,10.305031750847157
5,191000000,-1.5432196639811671e-06,-2.012327233447107e-07,1.3401046147626836e-08,0.999999999998789,0.009661755823468607,-0.0017212593673427204,-3.633367153083941e-08,4.068608423966219e-06,-3.379403703537201e-05,9.734947688554021
5,201000000,2.5134887636328053e-06,-2.758137199453026e-07,1.344665292982047e-08,0.999999999996803,-0.010213270566752026,-0.002128223008003092,5.8782861742806916e-08,5.291205461246721e-06,5.3339107782353055e-05,9.86505231124472
5,211000000,-1.5432196639945155e-06,-2.0123272342040094e-07,1.3450290673333996e-08,0.999999999998789,0.009661755823438187,-0.0017212593673466684,-3.633367153092787e-08,4.06860842396314e-06,-3.379403703582651e-05,9.734947688552028
5,221000000,2.5134887635936182e-06,-2.7581371980876333e-07,1.3495897455526675e-08,0.999999999996803,-0.010213270566727361,-0.0021282230079749916,5.8782861741847333e-08,5.291205461000743e-06,5.333910778126494e-05,9.865052311240873
5,231000000,7.620123594347048e-06,7.882979641382499e-07,1.3499968205811945e-08,0.9999999999706561,0.009661755823532363,-0.0017212593676013512,1.433251473515058e-08,-1.519744812795596e-05,0.00014461529776565825,9.734947687531271
5,241000000,2.5134887636267906e-06,-2.758137196960078e-07,1.354514198123105e-08,0.999999999996803,-0.010213270566686373,-0.0021282230080156184,5.8782861741775925e-08,5.291205461236428e-06,5.3339107781659735e-05,9.86505231123939
5,251000000,-1.54321966399758e-06,-2.0123272359003835e-07,1.3548779724743361e-08,0.999999999998789,-0.010213270566693647,-0.0021282230087129902,3.9992268411875016e-08,3.9441609724411404e-06,-3.024710546777202e-05,9.799999999954016
5,261000000,2.5134887636865598e-06,-2.7581371956897286e-07,1.3594386506935626e-08,0.999999999996803,-0.01021327056675067,-0.002128223008034127,5.878286174282013e-08,5.405949573148284e-06,4.926437969458741e-05,9.799999999876666
5,271000000,-1.543219663974086e-06,-2.0123272365896544e-07,1.3598024250449099e-08,0.999999999998789,0.009661755823450423,-0.0017212593673752567,-3.6333671531879255e-08,4.0686084241702955e-06,-3.3794037036010674e-05,9.734947688551838
5,281000000,2.513488763680677e-06,-2.758137194567936e-07,1.3643631032641807e-08,0.999999999996803,-0.010213270566743723,-0.0021282230080349003,5.878286174282657e-08,5.2912054613753996e-06,5.333910778220269e-05,9.865052311243188
5,291000000,-1.5432196639578e-06,-2.0123272373976074e-07,1.3647268776153759e-08,0.999999999998789,0.009661755823471025,-0.001721259367402736,-3.6333671532478525e-08,4.068608424254107e-06,-3.379403703588124e-05,9.734947688553131
5,301000000,-6.3740974871079336e-06,6.593961857428489e-07,1.3692716158047303e-08,0.999999999979468,-0.010213270566791175,-0.002128223008545136,1.8502246207450883e-09,-1.3160586210820821e-05,-0.00012201389853491364,9.865052310623915
5,311000000,7.620123594128175e-06,7.882979656322322e-07,1.3696946308625334e-08,0.9999999999706561,-0.017775172516288063,0.0018704199199672392,-5.705006847226604e-08,-1.3420149034877848e-05,0.00013918164761220997,9.182738969955162
5,321000000,2.5134887637047506e-06,-2.758137191996358e-07,1.3742120084047862e-08,0.999999999996803,-0.010213270566719954,-0.0021282230080066533,5.878286174199908e-08,4.819460658536761e-06,5.2429533797774194e-05,10.305031750849668
5,331000000,-1.5432196639399514e-06,-2.0123272388695717e-07,1.3745757827560167e-08,0.999999999998789,0.00966175582346834,-0.001721259367372907,-3.633367153223544e-08,4.068608424163451e-06,-3.379403703590871e-05,9.734947688554211
5,341000000,2.513488763689786e-06,-2.758137190743409e-07,1.379136460975101e-08,0.999999999996803,-0.010213270566731493,-0.002128223008005396,5.87828617417988e-08,5.291205461160585e-06,5.3339107781555435e-05,9.865052311241241
5,351000000,-1.5432196639098605e-06,-2.0123272395232122e-07,1.3795002353262725e-08,0.999999999998789,0.009661755823457668,-0.001721259367344142,-3.633367153167556e-08,4.068608423966927e-06,-3.379403703550517e-05,9.734947688554229
5,361000000,2.5134887637314855e-06,-2.758137189534807e-07,1.3840609135453528e-08,0.999999999996803,-0.010213270566726244,-0.0021282230080059716,5.878286174182358e-08,5.2912054612079e-06,5.333910778211682e-05,9.865052311243549
5,371000000,-1.543219663942595e-06,-2.012327240387566e-07,1.3844246878964998e-08,0.999999999998789,0.009661755823464622,-0.0017212593673734025,-3.6333671532506576e-08,4.068608424161837e-06,-3.379403703635353e-05,9.73494768855505
5,381000000,2.5134887637151107e-06,-2.758137188236708e-07,1.3889853661154879e-08,0.999999999996803,-0.010213270566726622,-0.0021282230080059182,5.878286174150098e-08,5.291205461097232e-06,5.333910778151205e-05,9.86505231123987
